{
    "resourceType": "Bundle",
    "id": "72de289d-755d-4a8e-b247-ce250b260782",
    "meta": {
        "lastUpdated": "2025-08-20T11:55:55.786+00:00"
    },
    "type": "searchset",
    "link": [
        {
            "relation": "self",
            "url": "https://hapi.fhir.org/baseR5/ExplanationOfBenefit?_count=10&_format=json&patient=Patient%2F4965"
        },
        {
            "relation": "next",
            "url": "https://hapi.fhir.org/baseR5?_getpages=72de289d-755d-4a8e-b247-ce250b260782&_getpagesoffset=10&_count=10&_format=json&_pretty=true&_bundletype=searchset"
        }
    ],
    "entry": [
        {
            "fullUrl": "https://hapi.fhir.org/baseR5/ExplanationOfBenefit/4973",
            "resource": {
                "resourceType": "ExplanationOfBenefit",
                "id": "4973",
                "meta": {
                    "versionId": "1",
                    "lastUpdated": "2022-05-25T09:07:00.745+00:00",
                    "source": "#JHoZ03e0jjyoOTGI"
                },
                "contained": [
                    {
                        "resourceType": "ServiceRequest",
                        "id": "referral",
                        "status": "completed",
                        "intent": "order",
                        "subject": {
                            "reference": "Patient/4965"
                        },
                        "requester": {
                            "reference": "Practitioner/4967"
                        },
                        "performer": [
                            {
                                "reference": "Practitioner/4967"
                            }
                        ]
                    },
                    {
                        "resourceType": "Coverage",
                        "id": "coverage",
                        "status": "active",
                        "type": {
                            "text": "Humana"
                        },
                        "beneficiary": {
                            "reference": "Patient/4965"
                        }
                    }
                ],
                "identifier": [
                    {
                        "system": "https://bluebutton.cms.gov/resources/variables/clm_id",
                        "value": "55d10840-4850-43dd-bab2-334aec3e8839"
                    },
                    {
                        "system": "https://bluebutton.cms.gov/resources/identifier/claim-group",
                        "value": "99999999999"
                    }
                ],
                "status": "active",
                "type": {
                    "coding": [
                        {
                            "system": "http://terminology.hl7.org/CodeSystem/claim-type",
                            "code": "institutional"
                        }
                    ]
                },
                "use": "claim",
                "patient": {
                    "reference": "Patient/4965"
                },
                "billablePeriod": {
                    "start": "1965-11-15T08:07:41-05:00",
                    "end": "1966-11-15T08:07:41-05:00"
                },
                "created": "1965-11-15T08:07:41-05:00",
                "insurer": {
                    "display": "Humana"
                },
                "provider": {
                    "reference": "Practitioner/4967"
                },
                "referral": {
                    "reference": "#referral"
                },
                "claim": {
                    "reference": "Claim/4972"
                },
                "claimResponse": {
                    "fullUrl": "https://hapi.fhir.org/baseR5/ClaimResponse/786996",
                    "resource": {
                        "resourceType": "ClaimResponse",
                        "id": "786996",
                        "meta": {
                            "versionId": "2",
                            "lastUpdated": "1965-12-15T08:07:41-05:00",
                            "source": "#g7qCM860ERz9cKrA"
                        },
                        "status": "active",
                        "patient": {
                            "reference": "Patient/4965"
                        },
                        "created": "1965-12-15",
                        "insurer": {
                            "reference": "Organization/4966"
                        },
                        "request": {
                            "reference": "Claim/4972"
                        },
                        "outcome": "error",
                        "item": [
                            {
                                "itemSequence": 1,
                                "reviewOutcome": {
                                    "decision": {
                                        "coding": [
                                            {
                                                "system": "http://hl7.org/fhir/claim-decision",
                                                "code": "denied",
                                                "display": "Denied"
                                            }
                                        ]
                                    },
                                    "reason": [
                                        {
                                            "coding": [
                                                {
                                                    "system": "http://hl7.org/fhir/claim-decision-reason",
                                                    "code": "0001",
                                                    "display": "Not medically necessary"
                                                }
                                            ]
                                        }
                                    ]
                                },
                                "adjudication": [
                                    {
                                        "category": {
                                            "coding": [
                                                {
                                                    "system": "http://terminology.hl7.org/CodeSystem/adjudication",
                                                    "code": "eligible"
                                                }
                                            ]
                                        },
                                        "amount": {
                                            "value": 0,
                                            "currency": "USD"
                                        }
                                    }
                                ]
                            }
                        ],
                        "error": [
                            {
                                "itemSequence": 1,
                                "code": {
                                    "coding": [
                                        {
                                            "system": "http://terminology.hl7.org/CodeSystem/adjudication-error",
                                            "code": "a001",
                                            "display": "Invalid coding in diagnosis"
                                        }
                                    ]
                                }
                            },
                            {
                                "itemSequence": 1,
                                "code": {
                                    "coding": [
                                        {
                                            "system": "http://terminology.hl7.org/CodeSystem/adjudication-error",
                                            "code": "a002",
                                            "display": "Service not covered"
                                        }
                                    ]
                                }
                            }
                        ]
                    }
                },
                "outcome": "complete",
                "careTeam": [
                    {
                        "sequence": 1,
                        "provider": {
                            "reference": "Practitioner/4967"
                        },
                        "role": {
                            "coding": [
                                {
                                    "system": "http://terminology.hl7.org/CodeSystem/claimcareteamrole",
                                    "code": "primary",
                                    "display": "Primary Care Practitioner"
                                }
                            ]
                        }
                    }
                ],
                "diagnosis": [
                    {
                        "sequence": 1,
                        "diagnosisReference": {
                            "reference": "Condition/4969"
                        },
                        "type": [
                            {
                                "coding": [
                                    {
                                        "system": "http://terminology.hl7.org/CodeSystem/ex-diagnosistype",
                                        "code": "principal"
                                    }
                                ]
                            }
                        ]
                    },
                    {
                        "sequence": 2,
                        "diagnosisReference": {
                            "reference": "Condition/4970"
                        },
                        "type": [
                            {
                                "coding": [
                                    {
                                        "system": "http://terminology.hl7.org/CodeSystem/ex-diagnosistype",
                                        "code": "principal"
                                    }
                                ]
                            }
                        ]
                    }
                ],
                "insurance": [
                    {
                        "focal": true,
                        "coverage": {
                            "reference": "#coverage",
                            "display": "Humana"
                        }
                    }
                ],
                "item": [
                    {
                        "sequence": 1,
                        "category": {
                            "coding": [
                                {
                                    "system": "https://bluebutton.cms.gov/resources/variables/line_cms_type_srvc_cd",
                                    "code": "1",
                                    "display": "Medical care"
                                }
                            ]
                        },
                        "productOrService": {
                            "coding": [
                                {
                                    "system": "http://snomed.info/sct",
                                    "code": "410429000",
                                    "display": "Cardiac Arrest"
                                }
                            ],
                            "text": "Cardiac Arrest"
                        },
                        "servicedPeriod": {
                            "start": "1965-11-15T06:22:41-05:00",
                            "end": "1965-11-15T08:07:41-05:00"
                        },
                        "locationCodeableConcept": {
                            "coding": [
                                {
                                    "system": "http://terminology.hl7.org/CodeSystem/ex-serviceplace",
                                    "code": "20",
                                    "display": "Urgent Care Facility"
                                }
                            ]
                        },
                        "encounter": [
                            {
                                "reference": "Encounter/4968"
                            }
                        ]
                    },
                    {
                        "sequence": 2,
                        "diagnosisSequence": [
                            1
                        ],
                        "category": {
                            "coding": [
                                {
                                    "system": "https://bluebutton.cms.gov/resources/variables/line_cms_type_srvc_cd",
                                    "code": "1",
                                    "display": "Medical care"
                                }
                            ]
                        },
                        "productOrService": {
                            "coding": [
                                {
                                    "system": "http://snomed.info/sct",
                                    "code": "410429000",
                                    "display": "Cardiac Arrest"
                                }
                            ],
                            "text": "Cardiac Arrest"
                        },
                        "servicedPeriod": {
                            "start": "1965-11-15T06:22:41-05:00",
                            "end": "1965-11-15T08:07:41-05:00"
                        },
                        "locationCodeableConcept": {
                            "coding": [
                                {
                                    "system": "http://terminology.hl7.org/CodeSystem/ex-serviceplace",
                                    "code": "20",
                                    "display": "Urgent Care Facility"
                                }
                            ]
                        }
                    },
                    {
                        "sequence": 3,
                        "diagnosisSequence": [
                            2
                        ],
                        "category": {
                            "coding": [
                                {
                                    "system": "https://bluebutton.cms.gov/resources/variables/line_cms_type_srvc_cd",
                                    "code": "1",
                                    "display": "Medical care"
                                }
                            ]
                        },
                        "productOrService": {
                            "coding": [
                                {
                                    "system": "http://snomed.info/sct",
                                    "code": "429007001",
                                    "display": "History of cardiac arrest (situation)"
                                }
                            ],
                            "text": "History of cardiac arrest (situation)"
                        },
                        "servicedPeriod": {
                            "start": "1965-11-15T06:22:41-05:00",
                            "end": "1965-11-15T08:07:41-05:00"
                        },
                        "locationCodeableConcept": {
                            "coding": [
                                {
                                    "system": "http://terminology.hl7.org/CodeSystem/ex-serviceplace",
                                    "code": "20",
                                    "display": "Urgent Care Facility"
                                }
                            ]
                        }
                    }
                ],
                "total": [
                    {
                        "category": {
                            "coding": [
                                {
                                    "system": "http://terminology.hl7.org/CodeSystem/adjudication",
                                    "code": "submitted",
                                    "display": "Submitted Amount"
                                }
                            ],
                            "text": "Submitted Amount"
                        },
                        "amount": {
                            "value": 129.16,
                            "currency": "USD"
                        }
                    }
                ],
                "payment": {
                    "amount": {
                        "value": 0,
                        "currency": "USD"
                    }
                }
            },
            "search": {
                "mode": "match"
            }
        },
        {
            "fullUrl": "https://hapi.fhir.org/baseR5/ExplanationOfBenefit/4979",
            "resource": {
                "resourceType": "ExplanationOfBenefit",
                "id": "4979",
                "meta": {
                    "versionId": "1",
                    "lastUpdated": "2022-05-25T09:07:00.745+00:00",
                    "source": "#JHoZ03e0jjyoOTGI"
                },
                "contained": [
                    {
                        "resourceType": "ServiceRequest",
                        "id": "referral",
                        "status": "completed",
                        "intent": "order",
                        "subject": {
                            "reference": "Patient/4965"
                        },
                        "requester": {
                            "reference": "Practitioner/4975"
                        },
                        "performer": [
                            {
                                "reference": "Practitioner/4975"
                            }
                        ]
                    },
                    {
                        "resourceType": "Coverage",
                        "id": "coverage",
                        "status": "active",
                        "type": {
                            "text": "Humana"
                        },
                        "beneficiary": {
                            "reference": "Patient/4965"
                        }
                    }
                ],
                "identifier": [
                    {
                        "system": "https://bluebutton.cms.gov/resources/variables/clm_id",
                        "value": "80ea06f4-881b-4d74-a443-24dc4fd2aacf"
                    },
                    {
                        "system": "https://bluebutton.cms.gov/resources/identifier/claim-group",
                        "value": "99999999999"
                    }
                ],
                "status": "active",
                "type": {
                    "coding": [
                        {
                            "system": "http://terminology.hl7.org/CodeSystem/claim-type",
                            "code": "institutional"
                        }
                    ]
                },
                "use": "claim",
                "patient": {
                    "reference": "Patient/4965"
                },
                "billablePeriod": {
                    "start": "1977-02-21T06:52:41-05:00",
                    "end": "1978-02-21T06:52:41-05:00"
                },
                "created": "1977-02-21T06:52:41-05:00",
                "insurer": {
                    "display": "Humana"
                },
                "provider": {
                    "reference": "Practitioner/4975"
                },
                "referral": {
                    "reference": "#referral"
                },
                "claim": {
                    "reference": "Claim/4978"
                },
                "outcome": "complete",
                "careTeam": [
                    {
                        "sequence": 1,
                        "provider": {
                            "reference": "Practitioner/4975"
                        },
                        "role": {
                            "coding": [
                                {
                                    "system": "http://terminology.hl7.org/CodeSystem/claimcareteamrole",
                                    "code": "primary",
                                    "display": "Primary Care Practitioner"
                                }
                            ]
                        }
                    }
                ],
                "diagnosis": [
                    {
                        "sequence": 1,
                        "diagnosisReference": {
                            "reference": "Condition/4977"
                        },
                        "type": [
                            {
                                "coding": [
                                    {
                                        "system": "http://terminology.hl7.org/CodeSystem/ex-diagnosistype",
                                        "code": "principal"
                                    }
                                ]
                            }
                        ]
                    }
                ],
                "insurance": [
                    {
                        "focal": true,
                        "coverage": {
                            "reference": "#coverage",
                            "display": "Humana"
                        }
                    }
                ],
                "item": [
                    {
                        "sequence": 1,
                        "category": {
                            "coding": [
                                {
                                    "system": "https://bluebutton.cms.gov/resources/variables/line_cms_type_srvc_cd",
                                    "code": "1",
                                    "display": "Medical care"
                                }
                            ]
                        },
                        "productOrService": {
                            "coding": [
                                {
                                    "system": "http://snomed.info/sct",
                                    "code": "162673000",
                                    "display": "General examination of patient (procedure)"
                                }
                            ],
                            "text": "General examination of patient (procedure)"
                        },
                        "servicedPeriod": {
                            "start": "1977-02-21T06:22:41-05:00",
                            "end": "1977-02-21T06:52:41-05:00"
                        },
                        "locationCodeableConcept": {
                            "coding": [
                                {
                                    "system": "http://terminology.hl7.org/CodeSystem/ex-serviceplace",
                                    "code": "19",
                                    "display": "Off Campus-Outpatient Hospital"
                                }
                            ]
                        },
                        "encounter": [
                            {
                                "reference": "Encounter/4976"
                            }
                        ]
                    },
                    {
                        "sequence": 2,
                        "diagnosisSequence": [
                            1
                        ],
                        "category": {
                            "coding": [
                                {
                                    "system": "https://bluebutton.cms.gov/resources/variables/line_cms_type_srvc_cd",
                                    "code": "1",
                                    "display": "Medical care"
                                }
                            ]
                        },
                        "productOrService": {
                            "coding": [
                                {
                                    "system": "http://snomed.info/sct",
                                    "code": "162864005",
                                    "display": "Body mass index 30+ - obesity (finding)"
                                }
                            ],
                            "text": "Body mass index 30+ - obesity (finding)"
                        },
                        "servicedPeriod": {
                            "start": "1977-02-21T06:22:41-05:00",
                            "end": "1977-02-21T06:52:41-05:00"
                        },
                        "locationCodeableConcept": {
                            "coding": [
                                {
                                    "system": "http://terminology.hl7.org/CodeSystem/ex-serviceplace",
                                    "code": "19",
                                    "display": "Off Campus-Outpatient Hospital"
                                }
                            ]
                        }
                    }
                ],
                "total": [
                    {
                        "category": {
                            "coding": [
                                {
                                    "system": "http://terminology.hl7.org/CodeSystem/adjudication",
                                    "code": "submitted",
                                    "display": "Submitted Amount"
                                }
                            ],
                            "text": "Submitted Amount"
                        },
                        "amount": {
                            "value": 129.16,
                            "currency": "USD"
                        }
                    }
                ],
                "payment": {
                    "amount": {
                        "value": 0,
                        "currency": "USD"
                    }
                }
            },
            "search": {
                "mode": "match"
            }
        },
        {
            "fullUrl": "https://hapi.fhir.org/baseR5/ExplanationOfBenefit/4991",
            "resource": {
                "resourceType": "ExplanationOfBenefit",
                "id": "4991",
                "meta": {
                    "versionId": "1",
                    "lastUpdated": "2022-05-25T09:07:00.745+00:00",
                    "source": "#JHoZ03e0jjyoOTGI"
                },
                "contained": [
                    {
                        "resourceType": "ServiceRequest",
                        "id": "referral",
                        "status": "completed",
                        "intent": "order",
                        "subject": {
                            "reference": "Patient/4965"
                        },
                        "requester": {
                            "reference": "Practitioner/4975"
                        },
                        "performer": [
                            {
                                "reference": "Practitioner/4975"
                            }
                        ]
                    },
                    {
                        "resourceType": "Coverage",
                        "id": "coverage",
                        "status": "active",
                        "type": {
                            "text": "Humana"
                        },
                        "beneficiary": {
                            "reference": "Patient/4965"
                        }
                    }
                ],
                "identifier": [
                    {
                        "system": "https://bluebutton.cms.gov/resources/variables/clm_id",
                        "value": "1ca3bacb-6f3e-4938-8a1d-e7c1ac4f9658"
                    },
                    {
                        "system": "https://bluebutton.cms.gov/resources/identifier/claim-group",
                        "value": "99999999999"
                    }
                ],
                "status": "active",
                "type": {
                    "coding": [
                        {
                            "system": "http://terminology.hl7.org/CodeSystem/claim-type",
                            "code": "institutional"
                        }
                    ]
                },
                "use": "claim",
                "patient": {
                    "reference": "Patient/4965"
                },
                "billablePeriod": {
                    "start": "1987-12-21T06:37:41-05:00",
                    "end": "1988-12-21T06:37:41-05:00"
                },
                "created": "1987-12-21T06:37:41-05:00",
                "insurer": {
                    "display": "Humana"
                },
                "provider": {
                    "reference": "Practitioner/4975"
                },
                "referral": {
                    "reference": "#referral"
                },
                "claim": {
                    "reference": "Claim/4990"
                },
                "outcome": "complete",
                "careTeam": [
                    {
                        "sequence": 1,
                        "provider": {
                            "reference": "Practitioner/4975"
                        },
                        "role": {
                            "coding": [
                                {
                                    "system": "http://terminology.hl7.org/CodeSystem/claimcareteamrole",
                                    "code": "primary",
                                    "display": "Primary Care Practitioner"
                                }
                            ]
                        }
                    }
                ],
                "diagnosis": [
                    {
                        "sequence": 1,
                        "diagnosisReference": {
                            "reference": "Condition/4981"
                        },
                        "type": [
                            {
                                "coding": [
                                    {
                                        "system": "http://terminology.hl7.org/CodeSystem/ex-diagnosistype",
                                        "code": "principal"
                                    }
                                ]
                            }
                        ]
                    },
                    {
                        "sequence": 2,
                        "diagnosisReference": {
                            "reference": "Condition/4982"
                        },
                        "type": [
                            {
                                "coding": [
                                    {
                                        "system": "http://terminology.hl7.org/CodeSystem/ex-diagnosistype",
                                        "code": "principal"
                                    }
                                ]
                            }
                        ]
                    }
                ],
                "insurance": [
                    {
                        "focal": true,
                        "coverage": {
                            "reference": "#coverage",
                            "display": "Humana"
                        }
                    }
                ],
                "item": [
                    {
                        "sequence": 1,
                        "category": {
                            "coding": [
                                {
                                    "system": "https://bluebutton.cms.gov/resources/variables/line_cms_type_srvc_cd",
                                    "code": "1",
                                    "display": "Medical care"
                                }
                            ]
                        },
                        "productOrService": {
                            "coding": [
                                {
                                    "system": "http://snomed.info/sct",
                                    "code": "162673000",
                                    "display": "General examination of patient (procedure)"
                                }
                            ],
                            "text": "General examination of patient (procedure)"
                        },
                        "servicedPeriod": {
                            "start": "1987-12-21T06:22:41-05:00",
                            "end": "1987-12-21T06:37:41-05:00"
                        },
                        "locationCodeableConcept": {
                            "coding": [
                                {
                                    "system": "http://terminology.hl7.org/CodeSystem/ex-serviceplace",
                                    "code": "19",
                                    "display": "Off Campus-Outpatient Hospital"
                                }
                            ]
                        },
                        "encounter": [
                            {
                                "reference": "Encounter/4980"
                            }
                        ]
                    },
                    {
                        "sequence": 2,
                        "diagnosisSequence": [
                            1
                        ],
                        "category": {
                            "coding": [
                                {
                                    "system": "https://bluebutton.cms.gov/resources/variables/line_cms_type_srvc_cd",
                                    "code": "1",
                                    "display": "Medical care"
                                }
                            ]
                        },
                        "productOrService": {
                            "coding": [
                                {
                                    "system": "http://snomed.info/sct",
                                    "code": "15777000",
                                    "display": "Prediabetes"
                                }
                            ],
                            "text": "Prediabetes"
                        },
                        "servicedPeriod": {
                            "start": "1987-12-21T06:22:41-05:00",
                            "end": "1987-12-21T06:37:41-05:00"
                        },
                        "locationCodeableConcept": {
                            "coding": [
                                {
                                    "system": "http://terminology.hl7.org/CodeSystem/ex-serviceplace",
                                    "code": "19",
                                    "display": "Off Campus-Outpatient Hospital"
                                }
                            ]
                        }
                    },
                    {
                        "sequence": 3,
                        "diagnosisSequence": [
                            2
                        ],
                        "category": {
                            "coding": [
                                {
                                    "system": "https://bluebutton.cms.gov/resources/variables/line_cms_type_srvc_cd",
                                    "code": "1",
                                    "display": "Medical care"
                                }
                            ]
                        },
                        "productOrService": {
                            "coding": [
                                {
                                    "system": "http://snomed.info/sct",
                                    "code": "271737000",
                                    "display": "Anemia (disorder)"
                                }
                            ],
                            "text": "Anemia (disorder)"
                        },
                        "servicedPeriod": {
                            "start": "1987-12-21T06:22:41-05:00",
                            "end": "1987-12-21T06:37:41-05:00"
                        },
                        "locationCodeableConcept": {
                            "coding": [
                                {
                                    "system": "http://terminology.hl7.org/CodeSystem/ex-serviceplace",
                                    "code": "19",
                                    "display": "Off Campus-Outpatient Hospital"
                                }
                            ]
                        }
                    }
                ],
                "total": [
                    {
                        "category": {
                            "coding": [
                                {
                                    "system": "http://terminology.hl7.org/CodeSystem/adjudication",
                                    "code": "submitted",
                                    "display": "Submitted Amount"
                                }
                            ],
                            "text": "Submitted Amount"
                        },
                        "amount": {
                            "value": 129.16,
                            "currency": "USD"
                        }
                    }
                ],
                "payment": {
                    "amount": {
                        "value": 0,
                        "currency": "USD"
                    }
                }
            },
            "search": {
                "mode": "match"
            }
        },
        {
            "fullUrl": "https://hapi.fhir.org/baseR5/ExplanationOfBenefit/5011",
            "resource": {
                "resourceType": "ExplanationOfBenefit",
                "id": "5011",
                "meta": {
                    "versionId": "1",
                    "lastUpdated": "2022-05-25T09:07:00.745+00:00",
                    "source": "#JHoZ03e0jjyoOTGI"
                },
                "contained": [
                    {
                        "resourceType": "ServiceRequest",
                        "id": "referral",
                        "status": "completed",
                        "intent": "order",
                        "subject": {
                            "reference": "Patient/4965"
                        },
                        "requester": {
                            "reference": "Practitioner/4975"
                        },
                        "performer": [
                            {
                                "reference": "Practitioner/4975"
                            }
                        ]
                    },
                    {
                        "resourceType": "Coverage",
                        "id": "coverage",
                        "status": "active",
                        "type": {
                            "text": "Humana"
                        },
                        "beneficiary": {
                            "reference": "Patient/4965"
                        }
                    }
                ],
                "identifier": [
                    {
                        "system": "https://bluebutton.cms.gov/resources/variables/clm_id",
                        "value": "3cec82c5-6576-4063-b607-76d4b0820b0c"
                    },
                    {
                        "system": "https://bluebutton.cms.gov/resources/identifier/claim-group",
                        "value": "99999999999"
                    }
                ],
                "status": "active",
                "type": {
                    "coding": [
                        {
                            "system": "http://terminology.hl7.org/CodeSystem/claim-type",
                            "code": "institutional"
                        }
                    ]
                },
                "use": "claim",
                "patient": {
                    "reference": "Patient/4965"
                },
                "billablePeriod": {
                    "start": "2010-03-01T06:37:41-05:00",
                    "end": "2011-03-01T06:37:41-05:00"
                },
                "created": "2010-03-01T06:37:41-05:00",
                "insurer": {
                    "display": "Humana"
                },
                "provider": {
                    "reference": "Practitioner/4975"
                },
                "referral": {
                    "reference": "#referral"
                },
                "claim": {
                    "reference": "Claim/5010"
                },
                "outcome": "complete",
                "careTeam": [
                    {
                        "sequence": 1,
                        "provider": {
                            "reference": "Practitioner/4975"
                        },
                        "role": {
                            "coding": [
                                {
                                    "system": "http://terminology.hl7.org/CodeSystem/claimcareteamrole",
                                    "code": "primary",
                                    "display": "Primary Care Practitioner"
                                }
                            ]
                        }
                    }
                ],
                "insurance": [
                    {
                        "focal": true,
                        "coverage": {
                            "reference": "#coverage",
                            "display": "Humana"
                        }
                    }
                ],
                "item": [
                    {
                        "sequence": 1,
                        "category": {
                            "coding": [
                                {
                                    "system": "https://bluebutton.cms.gov/resources/variables/line_cms_type_srvc_cd",
                                    "code": "1",
                                    "display": "Medical care"
                                }
                            ]
                        },
                        "productOrService": {
                            "coding": [
                                {
                                    "system": "http://snomed.info/sct",
                                    "code": "162673000",
                                    "display": "General examination of patient (procedure)"
                                }
                            ],
                            "text": "General examination of patient (procedure)"
                        },
                        "servicedPeriod": {
                            "start": "2010-03-01T06:22:41-05:00",
                            "end": "2010-03-01T06:37:41-05:00"
                        },
                        "locationCodeableConcept": {
                            "coding": [
                                {
                                    "system": "http://terminology.hl7.org/CodeSystem/ex-serviceplace",
                                    "code": "19",
                                    "display": "Off Campus-Outpatient Hospital"
                                }
                            ]
                        },
                        "encounter": [
                            {
                                "reference": "Encounter/4992"
                            }
                        ]
                    },
                    {
                        "sequence": 2,
                        "informationSequence": [
                            1
                        ],
                        "category": {
                            "coding": [
                                {
                                    "system": "https://bluebutton.cms.gov/resources/variables/line_cms_type_srvc_cd",
                                    "code": "1",
                                    "display": "Medical care"
                                }
                            ]
                        },
                        "productOrService": {
                            "coding": [
                                {
                                    "system": "http://hl7.org/fhir/sid/cvx",
                                    "code": "140",
                                    "display": "Influenza, seasonal, injectable, preservative free"
                                }
                            ],
                            "text": "Influenza, seasonal, injectable, preservative free"
                        },
                        "servicedPeriod": {
                            "start": "2010-03-01T06:22:41-05:00",
                            "end": "2010-03-01T06:37:41-05:00"
                        },
                        "locationCodeableConcept": {
                            "coding": [
                                {
                                    "system": "http://terminology.hl7.org/CodeSystem/ex-serviceplace",
                                    "code": "19",
                                    "display": "Off Campus-Outpatient Hospital"
                                }
                            ]
                        },
                        "net": {
                            "value": 140.52,
                            "currency": "USD"
                        },
                        "adjudication": [
                            {
                                "category": {
                                    "coding": [
                                        {
                                            "system": "https://bluebutton.cms.gov/resources/codesystem/adjudication",
                                            "code": "https://bluebutton.cms.gov/resources/variables/line_coinsrnc_amt",
                                            "display": "Line Beneficiary Coinsurance Amount"
                                        }
                                    ]
                                },
                                "amount": {
                                    "value": 28.104,
                                    "currency": "USD"
                                }
                            },
                            {
                                "category": {
                                    "coding": [
                                        {
                                            "system": "https://bluebutton.cms.gov/resources/codesystem/adjudication",
                                            "code": "https://bluebutton.cms.gov/resources/variables/line_prvdr_pmt_amt",
                                            "display": "Line Provider Payment Amount"
                                        }
                                    ]
                                },
                                "amount": {
                                    "value": 112.416,
                                    "currency": "USD"
                                }
                            },
                            {
                                "category": {
                                    "coding": [
                                        {
                                            "system": "https://bluebutton.cms.gov/resources/codesystem/adjudication",
                                            "code": "https://bluebutton.cms.gov/resources/variables/line_sbmtd_chrg_amt",
                                            "display": "Line Submitted Charge Amount"
                                        }
                                    ]
                                },
                                "amount": {
                                    "value": 140.52,
                                    "currency": "USD"
                                }
                            },
                            {
                                "category": {
                                    "coding": [
                                        {
                                            "system": "https://bluebutton.cms.gov/resources/codesystem/adjudication",
                                            "code": "https://bluebutton.cms.gov/resources/variables/line_alowd_chrg_amt",
                                            "display": "Line Allowed Charge Amount"
                                        }
                                    ]
                                },
                                "amount": {
                                    "value": 140.52,
                                    "currency": "USD"
                                }
                            },
                            {
                                "category": {
                                    "coding": [
                                        {
                                            "system": "https://bluebutton.cms.gov/resources/codesystem/adjudication",
                                            "code": "https://bluebutton.cms.gov/resources/variables/line_bene_ptb_ddctbl_amt",
                                            "display": "Line Beneficiary Part B Deductible Amount"
                                        }
                                    ]
                                },
                                "amount": {
                                    "value": 0,
                                    "currency": "USD"
                                }
                            },
                            {
                                "category": {
                                    "coding": [
                                        {
                                            "system": "https://bluebutton.cms.gov/resources/codesystem/adjudication",
                                            "code": "https://bluebutton.cms.gov/resources/variables/line_prcsg_ind_cd",
                                            "display": "Line Processing Indicator Code"
                                        }
                                    ]
                                }
                            }
                        ]
                    }
                ],
                "total": [
                    {
                        "category": {
                            "coding": [
                                {
                                    "system": "http://terminology.hl7.org/CodeSystem/adjudication",
                                    "code": "submitted",
                                    "display": "Submitted Amount"
                                }
                            ],
                            "text": "Submitted Amount"
                        },
                        "amount": {
                            "value": 129.16,
                            "currency": "USD"
                        }
                    }
                ],
                "payment": {
                    "amount": {
                        "value": 112.416,
                        "currency": "USD"
                    }
                }
            },
            "search": {
                "mode": "match"
            }
        },
        {
            "fullUrl": "https://hapi.fhir.org/baseR5/ExplanationOfBenefit/5020",
            "resource": {
                "resourceType": "ExplanationOfBenefit",
                "id": "5020",
                "meta": {
                    "versionId": "1",
                    "lastUpdated": "2022-05-25T09:07:00.745+00:00",
                    "source": "#JHoZ03e0jjyoOTGI"
                },
                "contained": [
                    {
                        "resourceType": "ServiceRequest",
                        "id": "referral",
                        "status": "completed",
                        "intent": "order",
                        "subject": {
                            "reference": "Patient/4965"
                        },
                        "requester": {
                            "reference": "Practitioner/4967"
                        },
                        "performer": [
                            {
                                "reference": "Practitioner/4967"
                            }
                        ]
                    },
                    {
                        "resourceType": "Coverage",
                        "id": "coverage",
                        "status": "active",
                        "type": {
                            "text": "Humana"
                        },
                        "beneficiary": {
                            "reference": "Patient/4965"
                        }
                    }
                ],
                "identifier": [
                    {
                        "system": "https://bluebutton.cms.gov/resources/variables/clm_id",
                        "value": "7073673c-51d5-49e9-9b5d-c62ea364120e"
                    },
                    {
                        "system": "https://bluebutton.cms.gov/resources/identifier/claim-group",
                        "value": "99999999999"
                    }
                ],
                "status": "active",
                "type": {
                    "coding": [
                        {
                            "system": "http://terminology.hl7.org/CodeSystem/claim-type",
                            "code": "institutional"
                        }
                    ]
                },
                "use": "claim",
                "patient": {
                    "reference": "Patient/4965"
                },
                "billablePeriod": {
                    "start": "2010-12-07T07:35:41-05:00",
                    "end": "2011-12-07T07:35:41-05:00"
                },
                "created": "2010-12-07T07:35:41-05:00",
                "insurer": {
                    "display": "Humana"
                },
                "provider": {
                    "reference": "Practitioner/4967"
                },
                "referral": {
                    "reference": "#referral"
                },
                "claim": {
                    "reference": "Claim/5019"
                },
                "outcome": "complete",
                "careTeam": [
                    {
                        "sequence": 1,
                        "provider": {
                            "reference": "Practitioner/4967"
                        },
                        "role": {
                            "coding": [
                                {
                                    "system": "http://terminology.hl7.org/CodeSystem/claimcareteamrole",
                                    "code": "primary",
                                    "display": "Primary Care Practitioner"
                                }
                            ]
                        }
                    }
                ],
                "diagnosis": [
                    {
                        "sequence": 1,
                        "diagnosisReference": {
                            "reference": "Condition/5013"
                        },
                        "type": [
                            {
                                "coding": [
                                    {
                                        "system": "http://terminology.hl7.org/CodeSystem/ex-diagnosistype",
                                        "code": "principal"
                                    }
                                ]
                            }
                        ]
                    }
                ],
                "insurance": [
                    {
                        "focal": true,
                        "coverage": {
                            "reference": "#coverage",
                            "display": "Humana"
                        }
                    }
                ],
                "item": [
                    {
                        "sequence": 1,
                        "category": {
                            "coding": [
                                {
                                    "system": "https://bluebutton.cms.gov/resources/variables/line_cms_type_srvc_cd",
                                    "code": "1",
                                    "display": "Medical care"
                                }
                            ]
                        },
                        "productOrService": {
                            "coding": [
                                {
                                    "system": "http://snomed.info/sct",
                                    "code": "185349003",
                                    "display": "Encounter for 'check-up'"
                                }
                            ],
                            "text": "Encounter for 'check-up'"
                        },
                        "servicedPeriod": {
                            "start": "2010-12-07T06:22:41-05:00",
                            "end": "2010-12-07T07:35:41-05:00"
                        },
                        "locationCodeableConcept": {
                            "coding": [
                                {
                                    "system": "http://terminology.hl7.org/CodeSystem/ex-serviceplace",
                                    "code": "21",
                                    "display": "Inpatient Hospital"
                                }
                            ]
                        },
                        "encounter": [
                            {
                                "reference": "Encounter/5012"
                            }
                        ]
                    },
                    {
                        "sequence": 2,
                        "category": {
                            "coding": [
                                {
                                    "system": "https://bluebutton.cms.gov/resources/variables/line_cms_type_srvc_cd",
                                    "code": "1",
                                    "display": "Medical care"
                                }
                            ]
                        },
                        "productOrService": {
                            "coding": [
                                {
                                    "system": "http://snomed.info/sct",
                                    "code": "73761001",
                                    "display": "Colonoscopy"
                                }
                            ],
                            "text": "Colonoscopy"
                        },
                        "servicedPeriod": {
                            "start": "2010-12-07T06:22:41-05:00",
                            "end": "2010-12-07T07:35:41-05:00"
                        },
                        "locationCodeableConcept": {
                            "coding": [
                                {
                                    "system": "http://terminology.hl7.org/CodeSystem/ex-serviceplace",
                                    "code": "21",
                                    "display": "Inpatient Hospital"
                                }
                            ]
                        },
                        "net": {
                            "value": 15269.76,
                            "currency": "USD"
                        },
                        "adjudication": [
                            {
                                "category": {
                                    "coding": [
                                        {
                                            "system": "https://bluebutton.cms.gov/resources/codesystem/adjudication",
                                            "code": "https://bluebutton.cms.gov/resources/variables/line_coinsrnc_amt",
                                            "display": "Line Beneficiary Coinsurance Amount"
                                        }
                                    ]
                                },
                                "amount": {
                                    "value": 3053.952,
                                    "currency": "USD"
                                }
                            },
                            {
                                "category": {
                                    "coding": [
                                        {
                                            "system": "https://bluebutton.cms.gov/resources/codesystem/adjudication",
                                            "code": "https://bluebutton.cms.gov/resources/variables/line_prvdr_pmt_amt",
                                            "display": "Line Provider Payment Amount"
                                        }
                                    ]
                                },
                                "amount": {
                                    "value": 12215.808,
                                    "currency": "USD"
                                }
                            },
                            {
                                "category": {
                                    "coding": [
                                        {
                                            "system": "https://bluebutton.cms.gov/resources/codesystem/adjudication",
                                            "code": "https://bluebutton.cms.gov/resources/variables/line_sbmtd_chrg_amt",
                                            "display": "Line Submitted Charge Amount"
                                        }
                                    ]
                                },
                                "amount": {
                                    "value": 15269.76,
                                    "currency": "USD"
                                }
                            },
                            {
                                "category": {
                                    "coding": [
                                        {
                                            "system": "https://bluebutton.cms.gov/resources/codesystem/adjudication",
                                            "code": "https://bluebutton.cms.gov/resources/variables/line_alowd_chrg_amt",
                                            "display": "Line Allowed Charge Amount"
                                        }
                                    ]
                                },
                                "amount": {
                                    "value": 15269.76,
                                    "currency": "USD"
                                }
                            },
                            {
                                "category": {
                                    "coding": [
                                        {
                                            "system": "https://bluebutton.cms.gov/resources/codesystem/adjudication",
                                            "code": "https://bluebutton.cms.gov/resources/variables/line_bene_ptb_ddctbl_amt",
                                            "display": "Line Beneficiary Part B Deductible Amount"
                                        }
                                    ]
                                },
                                "amount": {
                                    "value": 0,
                                    "currency": "USD"
                                }
                            },
                            {
                                "category": {
                                    "coding": [
                                        {
                                            "system": "https://bluebutton.cms.gov/resources/codesystem/adjudication",
                                            "code": "https://bluebutton.cms.gov/resources/variables/line_prcsg_ind_cd",
                                            "display": "Line Processing Indicator Code"
                                        }
                                    ]
                                }
                            }
                        ]
                    },
                    {
                        "sequence": 3,
                        "diagnosisSequence": [
                            1
                        ],
                        "category": {
                            "coding": [
                                {
                                    "system": "https://bluebutton.cms.gov/resources/variables/line_cms_type_srvc_cd",
                                    "code": "1",
                                    "display": "Medical care"
                                }
                            ]
                        },
                        "productOrService": {
                            "coding": [
                                {
                                    "system": "http://snomed.info/sct",
                                    "code": "68496003",
                                    "display": "Polyp of colon"
                                }
                            ],
                            "text": "Polyp of colon"
                        },
                        "servicedPeriod": {
                            "start": "2010-12-07T06:22:41-05:00",
                            "end": "2010-12-07T07:35:41-05:00"
                        },
                        "locationCodeableConcept": {
                            "coding": [
                                {
                                    "system": "http://terminology.hl7.org/CodeSystem/ex-serviceplace",
                                    "code": "21",
                                    "display": "Inpatient Hospital"
                                }
                            ]
                        }
                    },
                    {
                        "sequence": 4,
                        "category": {
                            "coding": [
                                {
                                    "system": "https://bluebutton.cms.gov/resources/variables/line_cms_type_srvc_cd",
                                    "code": "1",
                                    "display": "Medical care"
                                }
                            ]
                        },
                        "productOrService": {
                            "coding": [
                                {
                                    "system": "http://snomed.info/sct",
                                    "code": "1015401000000102",
                                    "display": "Fecal occult blood test"
                                }
                            ],
                            "text": "Fecal occult blood test"
                        },
                        "servicedPeriod": {
                            "start": "2010-12-07T06:22:41-05:00",
                            "end": "2010-12-07T07:35:41-05:00"
                        },
                        "locationCodeableConcept": {
                            "coding": [
                                {
                                    "system": "http://terminology.hl7.org/CodeSystem/ex-serviceplace",
                                    "code": "21",
                                    "display": "Inpatient Hospital"
                                }
                            ]
                        },
                        "net": {
                            "value": 516.65,
                            "currency": "USD"
                        },
                        "adjudication": [
                            {
                                "category": {
                                    "coding": [
                                        {
                                            "system": "https://bluebutton.cms.gov/resources/codesystem/adjudication",
                                            "code": "https://bluebutton.cms.gov/resources/variables/line_coinsrnc_amt",
                                            "display": "Line Beneficiary Coinsurance Amount"
                                        }
                                    ]
                                },
                                "amount": {
                                    "value": 103.33,
                                    "currency": "USD"
                                }
                            },
                            {
                                "category": {
                                    "coding": [
                                        {
                                            "system": "https://bluebutton.cms.gov/resources/codesystem/adjudication",
                                            "code": "https://bluebutton.cms.gov/resources/variables/line_prvdr_pmt_amt",
                                            "display": "Line Provider Payment Amount"
                                        }
                                    ]
                                },
                                "amount": {
                                    "value": 413.32,
                                    "currency": "USD"
                                }
                            },
                            {
                                "category": {
                                    "coding": [
                                        {
                                            "system": "https://bluebutton.cms.gov/resources/codesystem/adjudication",
                                            "code": "https://bluebutton.cms.gov/resources/variables/line_sbmtd_chrg_amt",
                                            "display": "Line Submitted Charge Amount"
                                        }
                                    ]
                                },
                                "amount": {
                                    "value": 516.65,
                                    "currency": "USD"
                                }
                            },
                            {
                                "category": {
                                    "coding": [
                                        {
                                            "system": "https://bluebutton.cms.gov/resources/codesystem/adjudication",
                                            "code": "https://bluebutton.cms.gov/resources/variables/line_alowd_chrg_amt",
                                            "display": "Line Allowed Charge Amount"
                                        }
                                    ]
                                },
                                "amount": {
                                    "value": 516.65,
                                    "currency": "USD"
                                }
                            },
                            {
                                "category": {
                                    "coding": [
                                        {
                                            "system": "https://bluebutton.cms.gov/resources/codesystem/adjudication",
                                            "code": "https://bluebutton.cms.gov/resources/variables/line_bene_ptb_ddctbl_amt",
                                            "display": "Line Beneficiary Part B Deductible Amount"
                                        }
                                    ]
                                },
                                "amount": {
                                    "value": 0,
                                    "currency": "USD"
                                }
                            },
                            {
                                "category": {
                                    "coding": [
                                        {
                                            "system": "https://bluebutton.cms.gov/resources/codesystem/adjudication",
                                            "code": "https://bluebutton.cms.gov/resources/variables/line_prcsg_ind_cd",
                                            "display": "Line Processing Indicator Code"
                                        }
                                    ]
                                }
                            }
                        ]
                    },
                    {
                        "sequence": 5,
                        "category": {
                            "coding": [
                                {
                                    "system": "https://bluebutton.cms.gov/resources/variables/line_cms_type_srvc_cd",
                                    "code": "1",
                                    "display": "Medical care"
                                }
                            ]
                        },
                        "productOrService": {
                            "coding": [
                                {
                                    "system": "http://snomed.info/sct",
                                    "code": "274031008",
                                    "display": "Rectal polypectomy"
                                }
                            ],
                            "text": "Rectal polypectomy"
                        },
                        "servicedPeriod": {
                            "start": "2010-12-07T06:22:41-05:00",
                            "end": "2010-12-07T07:35:41-05:00"
                        },
                        "locationCodeableConcept": {
                            "coding": [
                                {
                                    "system": "http://terminology.hl7.org/CodeSystem/ex-serviceplace",
                                    "code": "21",
                                    "display": "Inpatient Hospital"
                                }
                            ]
                        },
                        "net": {
                            "value": 7653.74,
                            "currency": "USD"
                        },
                        "adjudication": [
                            {
                                "category": {
                                    "coding": [
                                        {
                                            "system": "https://bluebutton.cms.gov/resources/codesystem/adjudication",
                                            "code": "https://bluebutton.cms.gov/resources/variables/line_coinsrnc_amt",
                                            "display": "Line Beneficiary Coinsurance Amount"
                                        }
                                    ]
                                },
                                "amount": {
                                    "value": 1530.748,
                                    "currency": "USD"
                                }
                            },
                            {
                                "category": {
                                    "coding": [
                                        {
                                            "system": "https://bluebutton.cms.gov/resources/codesystem/adjudication",
                                            "code": "https://bluebutton.cms.gov/resources/variables/line_prvdr_pmt_amt",
                                            "display": "Line Provider Payment Amount"
                                        }
                                    ]
                                },
                                "amount": {
                                    "value": 6122.992,
                                    "currency": "USD"
                                }
                            },
                            {
                                "category": {
                                    "coding": [
                                        {
                                            "system": "https://bluebutton.cms.gov/resources/codesystem/adjudication",
                                            "code": "https://bluebutton.cms.gov/resources/variables/line_sbmtd_chrg_amt",
                                            "display": "Line Submitted Charge Amount"
                                        }
                                    ]
                                },
                                "amount": {
                                    "value": 7653.74,
                                    "currency": "USD"
                                }
                            },
                            {
                                "category": {
                                    "coding": [
                                        {
                                            "system": "https://bluebutton.cms.gov/resources/codesystem/adjudication",
                                            "code": "https://bluebutton.cms.gov/resources/variables/line_alowd_chrg_amt",
                                            "display": "Line Allowed Charge Amount"
                                        }
                                    ]
                                },
                                "amount": {
                                    "value": 7653.74,
                                    "currency": "USD"
                                }
                            },
                            {
                                "category": {
                                    "coding": [
                                        {
                                            "system": "https://bluebutton.cms.gov/resources/codesystem/adjudication",
                                            "code": "https://bluebutton.cms.gov/resources/variables/line_bene_ptb_ddctbl_amt",
                                            "display": "Line Beneficiary Part B Deductible Amount"
                                        }
                                    ]
                                },
                                "amount": {
                                    "value": 0,
                                    "currency": "USD"
                                }
                            },
                            {
                                "category": {
                                    "coding": [
                                        {
                                            "system": "https://bluebutton.cms.gov/resources/codesystem/adjudication",
                                            "code": "https://bluebutton.cms.gov/resources/variables/line_prcsg_ind_cd",
                                            "display": "Line Processing Indicator Code"
                                        }
                                    ]
                                }
                            }
                        ]
                    }
                ],
                "total": [
                    {
                        "category": {
                            "coding": [
                                {
                                    "system": "http://terminology.hl7.org/CodeSystem/adjudication",
                                    "code": "submitted",
                                    "display": "Submitted Amount"
                                }
                            ],
                            "text": "Submitted Amount"
                        },
                        "amount": {
                            "value": 129.16,
                            "currency": "USD"
                        }
                    }
                ],
                "payment": {
                    "amount": {
                        "value": 18752.12,
                        "currency": "USD"
                    }
                }
            },
            "search": {
                "mode": "match"
            }
        },
        {
            "fullUrl": "https://hapi.fhir.org/baseR5/ExplanationOfBenefit/5047",
            "resource": {
                "resourceType": "ExplanationOfBenefit",
                "id": "5047",
                "meta": {
                    "versionId": "1",
                    "lastUpdated": "2022-05-25T09:07:00.745+00:00",
                    "source": "#JHoZ03e0jjyoOTGI"
                },
                "contained": [
                    {
                        "resourceType": "ServiceRequest",
                        "id": "referral",
                        "status": "completed",
                        "intent": "order",
                        "subject": {
                            "reference": "Patient/4965"
                        },
                        "requester": {
                            "reference": "Practitioner/4975"
                        },
                        "performer": [
                            {
                                "reference": "Practitioner/4975"
                            }
                        ]
                    },
                    {
                        "resourceType": "Coverage",
                        "id": "coverage",
                        "status": "active",
                        "type": {
                            "text": "Medicare"
                        },
                        "beneficiary": {
                            "reference": "Patient/4965"
                        }
                    }
                ],
                "identifier": [
                    {
                        "system": "https://bluebutton.cms.gov/resources/variables/clm_id",
                        "value": "f7a26386-e068-4e82-a99e-c027572009e9"
                    },
                    {
                        "system": "https://bluebutton.cms.gov/resources/identifier/claim-group",
                        "value": "99999999999"
                    }
                ],
                "status": "active",
                "type": {
                    "coding": [
                        {
                            "system": "http://terminology.hl7.org/CodeSystem/claim-type",
                            "code": "institutional"
                        }
                    ]
                },
                "use": "claim",
                "patient": {
                    "reference": "Patient/4965"
                },
                "billablePeriod": {
                    "start": "2011-03-07T06:52:41-05:00",
                    "end": "2012-03-07T06:52:41-05:00"
                },
                "created": "2011-03-07T06:52:41-05:00",
                "insurer": {
                    "display": "Medicare"
                },
                "provider": {
                    "reference": "Practitioner/4975"
                },
                "referral": {
                    "reference": "#referral"
                },
                "claim": {
                    "reference": "Claim/5046"
                },
                "outcome": "complete",
                "careTeam": [
                    {
                        "sequence": 1,
                        "provider": {
                            "reference": "Practitioner/4975"
                        },
                        "role": {
                            "coding": [
                                {
                                    "system": "http://terminology.hl7.org/CodeSystem/claimcareteamrole",
                                    "code": "primary",
                                    "display": "Primary Care Practitioner"
                                }
                            ]
                        }
                    }
                ],
                "insurance": [
                    {
                        "focal": true,
                        "coverage": {
                            "reference": "#coverage",
                            "display": "Medicare"
                        }
                    }
                ],
                "item": [
                    {
                        "sequence": 1,
                        "category": {
                            "coding": [
                                {
                                    "system": "https://bluebutton.cms.gov/resources/variables/line_cms_type_srvc_cd",
                                    "code": "1",
                                    "display": "Medical care"
                                }
                            ]
                        },
                        "productOrService": {
                            "coding": [
                                {
                                    "system": "http://snomed.info/sct",
                                    "code": "162673000",
                                    "display": "General examination of patient (procedure)"
                                }
                            ],
                            "text": "General examination of patient (procedure)"
                        },
                        "servicedPeriod": {
                            "start": "2011-03-07T06:22:41-05:00",
                            "end": "2011-03-07T06:52:41-05:00"
                        },
                        "locationCodeableConcept": {
                            "coding": [
                                {
                                    "system": "http://terminology.hl7.org/CodeSystem/ex-serviceplace",
                                    "code": "19",
                                    "display": "Off Campus-Outpatient Hospital"
                                }
                            ]
                        },
                        "encounter": [
                            {
                                "reference": "Encounter/5021"
                            }
                        ]
                    },
                    {
                        "sequence": 2,
                        "informationSequence": [
                            1
                        ],
                        "category": {
                            "coding": [
                                {
                                    "system": "https://bluebutton.cms.gov/resources/variables/line_cms_type_srvc_cd",
                                    "code": "1",
                                    "display": "Medical care"
                                }
                            ]
                        },
                        "productOrService": {
                            "coding": [
                                {
                                    "system": "http://hl7.org/fhir/sid/cvx",
                                    "code": "140",
                                    "display": "Influenza, seasonal, injectable, preservative free"
                                }
                            ],
                            "text": "Influenza, seasonal, injectable, preservative free"
                        },
                        "servicedPeriod": {
                            "start": "2011-03-07T06:22:41-05:00",
                            "end": "2011-03-07T06:52:41-05:00"
                        },
                        "locationCodeableConcept": {
                            "coding": [
                                {
                                    "system": "http://terminology.hl7.org/CodeSystem/ex-serviceplace",
                                    "code": "19",
                                    "display": "Off Campus-Outpatient Hospital"
                                }
                            ]
                        },
                        "net": {
                            "value": 140.52,
                            "currency": "USD"
                        },
                        "adjudication": [
                            {
                                "category": {
                                    "coding": [
                                        {
                                            "system": "https://bluebutton.cms.gov/resources/codesystem/adjudication",
                                            "code": "https://bluebutton.cms.gov/resources/variables/line_coinsrnc_amt",
                                            "display": "Line Beneficiary Coinsurance Amount"
                                        }
                                    ]
                                },
                                "amount": {
                                    "value": 28.104,
                                    "currency": "USD"
                                }
                            },
                            {
                                "category": {
                                    "coding": [
                                        {
                                            "system": "https://bluebutton.cms.gov/resources/codesystem/adjudication",
                                            "code": "https://bluebutton.cms.gov/resources/variables/line_prvdr_pmt_amt",
                                            "display": "Line Provider Payment Amount"
                                        }
                                    ]
                                },
                                "amount": {
                                    "value": 112.416,
                                    "currency": "USD"
                                }
                            },
                            {
                                "category": {
                                    "coding": [
                                        {
                                            "system": "https://bluebutton.cms.gov/resources/codesystem/adjudication",
                                            "code": "https://bluebutton.cms.gov/resources/variables/line_sbmtd_chrg_amt",
                                            "display": "Line Submitted Charge Amount"
                                        }
                                    ]
                                },
                                "amount": {
                                    "value": 140.52,
                                    "currency": "USD"
                                }
                            },
                            {
                                "category": {
                                    "coding": [
                                        {
                                            "system": "https://bluebutton.cms.gov/resources/codesystem/adjudication",
                                            "code": "https://bluebutton.cms.gov/resources/variables/line_alowd_chrg_amt",
                                            "display": "Line Allowed Charge Amount"
                                        }
                                    ]
                                },
                                "amount": {
                                    "value": 140.52,
                                    "currency": "USD"
                                }
                            },
                            {
                                "category": {
                                    "coding": [
                                        {
                                            "system": "https://bluebutton.cms.gov/resources/codesystem/adjudication",
                                            "code": "https://bluebutton.cms.gov/resources/variables/line_bene_ptb_ddctbl_amt",
                                            "display": "Line Beneficiary Part B Deductible Amount"
                                        }
                                    ]
                                },
                                "amount": {
                                    "value": 0,
                                    "currency": "USD"
                                }
                            },
                            {
                                "category": {
                                    "coding": [
                                        {
                                            "system": "https://bluebutton.cms.gov/resources/codesystem/adjudication",
                                            "code": "https://bluebutton.cms.gov/resources/variables/line_prcsg_ind_cd",
                                            "display": "Line Processing Indicator Code"
                                        }
                                    ]
                                }
                            }
                        ]
                    },
                    {
                        "sequence": 3,
                        "informationSequence": [
                            2
                        ],
                        "category": {
                            "coding": [
                                {
                                    "system": "https://bluebutton.cms.gov/resources/variables/line_cms_type_srvc_cd",
                                    "code": "1",
                                    "display": "Medical care"
                                }
                            ]
                        },
                        "productOrService": {
                            "coding": [
                                {
                                    "system": "http://hl7.org/fhir/sid/cvx",
                                    "code": "133",
                                    "display": "Pneumococcal conjugate PCV 13"
                                }
                            ],
                            "text": "Pneumococcal conjugate PCV 13"
                        },
                        "servicedPeriod": {
                            "start": "2011-03-07T06:22:41-05:00",
                            "end": "2011-03-07T06:52:41-05:00"
                        },
                        "locationCodeableConcept": {
                            "coding": [
                                {
                                    "system": "http://terminology.hl7.org/CodeSystem/ex-serviceplace",
                                    "code": "19",
                                    "display": "Off Campus-Outpatient Hospital"
                                }
                            ]
                        },
                        "net": {
                            "value": 140.52,
                            "currency": "USD"
                        },
                        "adjudication": [
                            {
                                "category": {
                                    "coding": [
                                        {
                                            "system": "https://bluebutton.cms.gov/resources/codesystem/adjudication",
                                            "code": "https://bluebutton.cms.gov/resources/variables/line_coinsrnc_amt",
                                            "display": "Line Beneficiary Coinsurance Amount"
                                        }
                                    ]
                                },
                                "amount": {
                                    "value": 28.104,
                                    "currency": "USD"
                                }
                            },
                            {
                                "category": {
                                    "coding": [
                                        {
                                            "system": "https://bluebutton.cms.gov/resources/codesystem/adjudication",
                                            "code": "https://bluebutton.cms.gov/resources/variables/line_prvdr_pmt_amt",
                                            "display": "Line Provider Payment Amount"
                                        }
                                    ]
                                },
                                "amount": {
                                    "value": 112.416,
                                    "currency": "USD"
                                }
                            },
                            {
                                "category": {
                                    "coding": [
                                        {
                                            "system": "https://bluebutton.cms.gov/resources/codesystem/adjudication",
                                            "code": "https://bluebutton.cms.gov/resources/variables/line_sbmtd_chrg_amt",
                                            "display": "Line Submitted Charge Amount"
                                        }
                                    ]
                                },
                                "amount": {
                                    "value": 140.52,
                                    "currency": "USD"
                                }
                            },
                            {
                                "category": {
                                    "coding": [
                                        {
                                            "system": "https://bluebutton.cms.gov/resources/codesystem/adjudication",
                                            "code": "https://bluebutton.cms.gov/resources/variables/line_alowd_chrg_amt",
                                            "display": "Line Allowed Charge Amount"
                                        }
                                    ]
                                },
                                "amount": {
                                    "value": 140.52,
                                    "currency": "USD"
                                }
                            },
                            {
                                "category": {
                                    "coding": [
                                        {
                                            "system": "https://bluebutton.cms.gov/resources/codesystem/adjudication",
                                            "code": "https://bluebutton.cms.gov/resources/variables/line_bene_ptb_ddctbl_amt",
                                            "display": "Line Beneficiary Part B Deductible Amount"
                                        }
                                    ]
                                },
                                "amount": {
                                    "value": 0,
                                    "currency": "USD"
                                }
                            },
                            {
                                "category": {
                                    "coding": [
                                        {
                                            "system": "https://bluebutton.cms.gov/resources/codesystem/adjudication",
                                            "code": "https://bluebutton.cms.gov/resources/variables/line_prcsg_ind_cd",
                                            "display": "Line Processing Indicator Code"
                                        }
                                    ]
                                }
                            }
                        ]
                    },
                    {
                        "sequence": 4,
                        "category": {
                            "coding": [
                                {
                                    "system": "https://bluebutton.cms.gov/resources/variables/line_cms_type_srvc_cd",
                                    "code": "1",
                                    "display": "Medical care"
                                }
                            ]
                        },
                        "productOrService": {
                            "coding": [
                                {
                                    "system": "http://snomed.info/sct",
                                    "code": "430193006",
                                    "display": "Medication Reconciliation (procedure)"
                                }
                            ],
                            "text": "Medication Reconciliation (procedure)"
                        },
                        "servicedPeriod": {
                            "start": "2011-03-07T06:22:41-05:00",
                            "end": "2011-03-07T06:52:41-05:00"
                        },
                        "locationCodeableConcept": {
                            "coding": [
                                {
                                    "system": "http://terminology.hl7.org/CodeSystem/ex-serviceplace",
                                    "code": "19",
                                    "display": "Off Campus-Outpatient Hospital"
                                }
                            ]
                        },
                        "net": {
                            "value": 596.63,
                            "currency": "USD"
                        },
                        "adjudication": [
                            {
                                "category": {
                                    "coding": [
                                        {
                                            "system": "https://bluebutton.cms.gov/resources/codesystem/adjudication",
                                            "code": "https://bluebutton.cms.gov/resources/variables/line_coinsrnc_amt",
                                            "display": "Line Beneficiary Coinsurance Amount"
                                        }
                                    ]
                                },
                                "amount": {
                                    "value": 119.326,
                                    "currency": "USD"
                                }
                            },
                            {
                                "category": {
                                    "coding": [
                                        {
                                            "system": "https://bluebutton.cms.gov/resources/codesystem/adjudication",
                                            "code": "https://bluebutton.cms.gov/resources/variables/line_prvdr_pmt_amt",
                                            "display": "Line Provider Payment Amount"
                                        }
                                    ]
                                },
                                "amount": {
                                    "value": 477.304,
                                    "currency": "USD"
                                }
                            },
                            {
                                "category": {
                                    "coding": [
                                        {
                                            "system": "https://bluebutton.cms.gov/resources/codesystem/adjudication",
                                            "code": "https://bluebutton.cms.gov/resources/variables/line_sbmtd_chrg_amt",
                                            "display": "Line Submitted Charge Amount"
                                        }
                                    ]
                                },
                                "amount": {
                                    "value": 596.63,
                                    "currency": "USD"
                                }
                            },
                            {
                                "category": {
                                    "coding": [
                                        {
                                            "system": "https://bluebutton.cms.gov/resources/codesystem/adjudication",
                                            "code": "https://bluebutton.cms.gov/resources/variables/line_alowd_chrg_amt",
                                            "display": "Line Allowed Charge Amount"
                                        }
                                    ]
                                },
                                "amount": {
                                    "value": 596.63,
                                    "currency": "USD"
                                }
                            },
                            {
                                "category": {
                                    "coding": [
                                        {
                                            "system": "https://bluebutton.cms.gov/resources/codesystem/adjudication",
                                            "code": "https://bluebutton.cms.gov/resources/variables/line_bene_ptb_ddctbl_amt",
                                            "display": "Line Beneficiary Part B Deductible Amount"
                                        }
                                    ]
                                },
                                "amount": {
                                    "value": 0,
                                    "currency": "USD"
                                }
                            },
                            {
                                "category": {
                                    "coding": [
                                        {
                                            "system": "https://bluebutton.cms.gov/resources/codesystem/adjudication",
                                            "code": "https://bluebutton.cms.gov/resources/variables/line_prcsg_ind_cd",
                                            "display": "Line Processing Indicator Code"
                                        }
                                    ]
                                }
                            }
                        ]
                    }
                ],
                "total": [
                    {
                        "category": {
                            "coding": [
                                {
                                    "system": "http://terminology.hl7.org/CodeSystem/adjudication",
                                    "code": "submitted",
                                    "display": "Submitted Amount"
                                }
                            ],
                            "text": "Submitted Amount"
                        },
                        "amount": {
                            "value": 129.16,
                            "currency": "USD"
                        }
                    }
                ],
                "payment": {
                    "amount": {
                        "value": 702.136,
                        "currency": "USD"
                    }
                }
            },
            "search": {
                "mode": "match"
            }
        },
        {
            "fullUrl": "https://hapi.fhir.org/baseR5/ExplanationOfBenefit/5051",
            "resource": {
                "resourceType": "ExplanationOfBenefit",
                "id": "5051",
                "meta": {
                    "versionId": "1",
                    "lastUpdated": "2022-05-25T09:07:00.745+00:00",
                    "source": "#JHoZ03e0jjyoOTGI"
                },
                "contained": [
                    {
                        "resourceType": "ServiceRequest",
                        "id": "referral",
                        "status": "completed",
                        "intent": "order",
                        "subject": {
                            "reference": "Patient/4965"
                        },
                        "requester": {
                            "reference": "Practitioner/4967"
                        },
                        "performer": [
                            {
                                "reference": "Practitioner/4967"
                            }
                        ]
                    },
                    {
                        "resourceType": "Coverage",
                        "id": "coverage",
                        "status": "active",
                        "type": {
                            "text": "Medicare"
                        },
                        "beneficiary": {
                            "reference": "Patient/4965"
                        }
                    }
                ],
                "identifier": [
                    {
                        "system": "https://bluebutton.cms.gov/resources/variables/clm_id",
                        "value": "73dd827a-879f-46db-aeed-7cdb59b94a50"
                    },
                    {
                        "system": "https://bluebutton.cms.gov/resources/identifier/claim-group",
                        "value": "99999999999"
                    }
                ],
                "status": "active",
                "type": {
                    "coding": [
                        {
                            "system": "http://terminology.hl7.org/CodeSystem/claim-type",
                            "code": "institutional"
                        }
                    ]
                },
                "use": "claim",
                "patient": {
                    "reference": "Patient/4965"
                },
                "billablePeriod": {
                    "start": "2011-11-03T07:37:41-04:00",
                    "end": "2012-11-03T07:37:41-04:00"
                },
                "created": "2011-11-03T07:37:41-04:00",
                "insurer": {
                    "display": "Medicare"
                },
                "provider": {
                    "reference": "Practitioner/4967"
                },
                "referral": {
                    "reference": "#referral"
                },
                "claim": {
                    "reference": "Claim/5050"
                },
                "outcome": "complete",
                "careTeam": [
                    {
                        "sequence": 1,
                        "provider": {
                            "reference": "Practitioner/4967"
                        },
                        "role": {
                            "coding": [
                                {
                                    "system": "http://terminology.hl7.org/CodeSystem/claimcareteamrole",
                                    "code": "primary",
                                    "display": "Primary Care Practitioner"
                                }
                            ]
                        }
                    }
                ],
                "diagnosis": [
                    {
                        "sequence": 1,
                        "diagnosisReference": {
                            "reference": "Condition/5049"
                        },
                        "type": [
                            {
                                "coding": [
                                    {
                                        "system": "http://terminology.hl7.org/CodeSystem/ex-diagnosistype",
                                        "code": "principal"
                                    }
                                ]
                            }
                        ]
                    }
                ],
                "insurance": [
                    {
                        "focal": true,
                        "coverage": {
                            "reference": "#coverage",
                            "display": "Medicare"
                        }
                    }
                ],
                "item": [
                    {
                        "sequence": 1,
                        "category": {
                            "coding": [
                                {
                                    "system": "https://bluebutton.cms.gov/resources/variables/line_cms_type_srvc_cd",
                                    "code": "1",
                                    "display": "Medical care"
                                }
                            ]
                        },
                        "productOrService": {
                            "coding": [
                                {
                                    "system": "http://snomed.info/sct",
                                    "code": "185345009",
                                    "display": "Encounter for symptom"
                                }
                            ],
                            "text": "Encounter for symptom"
                        },
                        "servicedPeriod": {
                            "start": "2011-11-03T07:22:41-04:00",
                            "end": "2011-11-03T07:37:41-04:00"
                        },
                        "locationCodeableConcept": {
                            "coding": [
                                {
                                    "system": "http://terminology.hl7.org/CodeSystem/ex-serviceplace",
                                    "code": "21",
                                    "display": "Inpatient Hospital"
                                }
                            ]
                        },
                        "encounter": [
                            {
                                "reference": "Encounter/5048"
                            }
                        ]
                    },
                    {
                        "sequence": 2,
                        "diagnosisSequence": [
                            1
                        ],
                        "category": {
                            "coding": [
                                {
                                    "system": "https://bluebutton.cms.gov/resources/variables/line_cms_type_srvc_cd",
                                    "code": "1",
                                    "display": "Medical care"
                                }
                            ]
                        },
                        "productOrService": {
                            "coding": [
                                {
                                    "system": "http://snomed.info/sct",
                                    "code": "444814009",
                                    "display": "Viral sinusitis (disorder)"
                                }
                            ],
                            "text": "Viral sinusitis (disorder)"
                        },
                        "servicedPeriod": {
                            "start": "2011-11-03T07:22:41-04:00",
                            "end": "2011-11-03T07:37:41-04:00"
                        },
                        "locationCodeableConcept": {
                            "coding": [
                                {
                                    "system": "http://terminology.hl7.org/CodeSystem/ex-serviceplace",
                                    "code": "21",
                                    "display": "Inpatient Hospital"
                                }
                            ]
                        }
                    }
                ],
                "total": [
                    {
                        "category": {
                            "coding": [
                                {
                                    "system": "http://terminology.hl7.org/CodeSystem/adjudication",
                                    "code": "submitted",
                                    "display": "Submitted Amount"
                                }
                            ],
                            "text": "Submitted Amount"
                        },
                        "amount": {
                            "value": 129.16,
                            "currency": "USD"
                        }
                    }
                ],
                "payment": {
                    "amount": {
                        "value": 0,
                        "currency": "USD"
                    }
                }
            },
            "search": {
                "mode": "match"
            }
        },
        {
            "fullUrl": "https://hapi.fhir.org/baseR5/ExplanationOfBenefit/5072",
            "resource": {
                "resourceType": "ExplanationOfBenefit",
                "id": "5072",
                "meta": {
                    "versionId": "1",
                    "lastUpdated": "2022-05-25T09:07:00.745+00:00",
                    "source": "#JHoZ03e0jjyoOTGI"
                },
                "contained": [
                    {
                        "resourceType": "ServiceRequest",
                        "id": "referral",
                        "status": "completed",
                        "intent": "order",
                        "subject": {
                            "reference": "Patient/4965"
                        },
                        "requester": {
                            "reference": "Practitioner/4975"
                        },
                        "performer": [
                            {
                                "reference": "Practitioner/4975"
                            }
                        ]
                    },
                    {
                        "resourceType": "Coverage",
                        "id": "coverage",
                        "": "active",
                        "type": {
                            "text": "Medicare"
                        },
                        "beneficiary": {
                            "reference": "Patient/4965"
                        }
                    }
                ],
                "identifier": [
                    {
                        "system": "https://bluebutton.cms.gov/resources/variables/clm_id",
                        "value": "6b082036-d9f9-4e56-aca8-93f02d9a3bae"
                    },
                    {
                        "system": "https://bluebutton.cms.gov/resources/identifier/claim-group",
                        "value": "99999999999"
                    }
                ],
                "status": "active",
                "type": {
                    "coding": [
                        {
                            "system": "http://terminology.hl7.org/CodeSystem/claim-type",
                            "code": "institutional"
                        }
                    ]
                },
                "use": "claim",
                "patient": {
                    "reference": "Patient/4965"
                },
                "billablePeriod": {
                    "start": "2012-03-12T07:37:41-04:00",
                    "end": "2013-03-12T07:37:41-04:00"
                },
                "created": "2012-03-12T07:37:41-04:00",
                "insurer": {
                    "display": "Medicare"
                },
                "provider": {
                    "reference": "Practitioner/4975"
                },
                "referral": {
                    "reference": "#referral"
                },
                "claim": {
                    "reference": "Claim/5071"
                },
                "outcome": "complete",
                "careTeam": [
                    {
                        "sequence": 1,
                        "provider": {
                            "reference": "Practitioner/4975"
                        },
                        "role": {
                            "coding": [
                                {
                                    "system": "http://terminology.hl7.org/CodeSystem/claimcareteamrole",
                                    "code": "primary",
                                    "display": "Primary Care Practitioner"
                                }
                            ]
                        }
                    }
                ],
                "insurance": [
                    {
                        "focal": true,
                        "coverage": {
                            "reference": "#coverage",
                            "display": "Medicare"
                        }
                    }
                ],
                "item": [
                    {
                        "sequence": 1,
                        "category": {
                            "coding": [
                                {
                                    "system": "https://bluebutton.cms.gov/resources/variables/line_cms_type_srvc_cd",
                                    "code": "1",
                                    "display": "Medical care"
                                }
                            ]
                        },
                        "productOrService": {
                            "coding": [
                                {
                                    "system": "http://snomed.info/sct",
                                    "code": "162673000",
                                    "display": "General examination of patient (procedure)"
                                }
                            ],
                            "text": "General examination of patient (procedure)"
                        },
                        "servicedPeriod": {
                            "start": "2012-03-12T07:22:41-04:00",
                            "end": "2012-03-12T07:37:41-04:00"
                        },
                        "locationCodeableConcept": {
                            "coding": [
                                {
                                    "system": "http://terminology.hl7.org/CodeSystem/ex-serviceplace",
                                    "code": "19",
                                    "display": "Off Campus-Outpatient Hospital"
                                }
                            ]
                        },
                        "encounter": [
                            {
                                "reference": "Encounter/5052"
                            }
                        ]
                    },
                    {
                        "sequence": 2,
                        "informationSequence": [
                            1
                        ],
                        "category": {
                            "coding": [
                                {
                                    "system": "https://bluebutton.cms.gov/resources/variables/line_cms_type_srvc_cd",
                                    "code": "1",
                                    "display": "Medical care"
                                }
                            ]
                        },
                        "productOrService": {
                            "coding": [
                                {
                                    "system": "http://hl7.org/fhir/sid/cvx",
                                    "code": "140",
                                    "display": "Influenza, seasonal, injectable, preservative free"
                                }
                            ],
                            "text": "Influenza, seasonal, injectable, preservative free"
                        },
                        "servicedPeriod": {
                            "start": "2012-03-12T07:22:41-04:00",
                            "end": "2012-03-12T07:37:41-04:00"
                        },
                        "locationCodeableConcept": {
                            "coding": [
                                {
                                    "system": "http://terminology.hl7.org/CodeSystem/ex-serviceplace",
                                    "code": "19",
                                    "display": "Off Campus-Outpatient Hospital"
                                }
                            ]
                        },
                        "net": {
                            "value": 140.52,
                            "currency": "USD"
                        },
                        "adjudication": [
                            {
                                "category": {
                                    "coding": [
                                        {
                                            "system": "https://bluebutton.cms.gov/resources/codesystem/adjudication",
                                            "code": "https://bluebutton.cms.gov/resources/variables/line_coinsrnc_amt",
                                            "display": "Line Beneficiary Coinsurance Amount"
                                        }
                                    ]
                                },
                                "amount": {
                                    "value": 28.104,
                                    "currency": "USD"
                                }
                            },
                            {
                                "category": {
                                    "coding": [
                                        {
                                            "system": "https://bluebutton.cms.gov/resources/codesystem/adjudication",
                                            "code": "https://bluebutton.cms.gov/resources/variables/line_prvdr_pmt_amt",
                                            "display": "Line Provider Payment Amount"
                                        }
                                    ]
                                },
                                "amount": {
                                    "value": 112.416,
                                    "currency": "USD"
                                }
                            },
                            {
                                "category": {
                                    "coding": [
                                        {
                                            "system": "https://bluebutton.cms.gov/resources/codesystem/adjudication",
                                            "code": "https://bluebutton.cms.gov/resources/variables/line_sbmtd_chrg_amt",
                                            "display": "Line Submitted Charge Amount"
                                        }
                                    ]
                                },
                                "amount": {
                                    "value": 140.52,
                                    "currency": "USD"
                                }
                            },
                            {
                                "category": {
                                    "coding": [
                                        {
                                            "system": "https://bluebutton.cms.gov/resources/codesystem/adjudication",
                                            "code": "https://bluebutton.cms.gov/resources/variables/line_alowd_chrg_amt",
                                            "display": "Line Allowed Charge Amount"
                                        }
                                    ]
                                },
                                "amount": {
                                    "value": 140.52,
                                    "currency": "USD"
                                }
                            },
                            {
                                "category": {
                                    "coding": [
                                        {
                                            "system": "https://bluebutton.cms.gov/resources/codesystem/adjudication",
                                            "code": "https://bluebutton.cms.gov/resources/variables/line_bene_ptb_ddctbl_amt",
                                            "display": "Line Beneficiary Part B Deductible Amount"
                                        }
                                    ]
                                },
                                "amount": {
                                    "value": 0,
                                    "currency": "USD"
                                }
                            },
                            {
                                "category": {
                                    "coding": [
                                        {
                                            "system": "https://bluebutton.cms.gov/resources/codesystem/adjudication",
                                            "code": "https://bluebutton.cms.gov/resources/variables/line_prcsg_ind_cd",
                                            "display": "Line Processing Indicator Code"
                                        }
                                    ]
                                }
                            }
                        ]
                    },
                    {
                        "sequence": 3,
                        "informationSequence": [
                            2
                        ],
                        "category": {
                            "coding": [
                                {
                                    "system": "https://bluebutton.cms.gov/resources/variables/line_cms_type_srvc_cd",
                                    "code": "1",
                                    "display": "Medical care"
                                }
                            ]
                        },
                        "productOrService": {
                            "coding": [
                                {
                                    "system": "http://hl7.org/fhir/sid/cvx",
                                    "code": "33",
                                    "display": "pneumococcal polysaccharide vaccine, 23 valent"
                                }
                            ],
                            "text": "pneumococcal polysaccharide vaccine, 23 valent"
                        },
                        "servicedPeriod": {
                            "start": "2012-03-12T07:22:41-04:00",
                            "end": "2012-03-12T07:37:41-04:00"
                        },
                        "locationCodeableConcept": {
                            "coding": [
                                {
                                    "system": "http://terminology.hl7.org/CodeSystem/ex-serviceplace",
                                    "code": "19",
                                    "display": "Off Campus-Outpatient Hospital"
                                }
                            ]
                        },
                        "net": {
                            "value": 140.52,
                            "currency": "USD"
                        },
                        "adjudication": [
                            {
                                "category": {
                                    "coding": [
                                        {
                                            "system": "https://bluebutton.cms.gov/resources/codesystem/adjudication",
                                            "code": "https://bluebutton.cms.gov/resources/variables/line_coinsrnc_amt",
                                            "display": "Line Beneficiary Coinsurance Amount"
                                        }
                                    ]
                                },
                                "amount": {
                                    "value": 28.104,
                                    "currency": "USD"
                                }
                            },
                            {
                                "category": {
                                    "coding": [
                                        {
                                            "system": "https://bluebutton.cms.gov/resources/codesystem/adjudication",
                                            "code": "https://bluebutton.cms.gov/resources/variables/line_prvdr_pmt_amt",
                                            "display": "Line Provider Payment Amount"
                                        }
                                    ]
                                },
                                "amount": {
                                    "value": 112.416,
                                    "currency": "USD"
                                }
                            },
                            {
                                "category": {
                                    "coding": [
                                        {
                                            "system": "https://bluebutton.cms.gov/resources/codesystem/adjudication",
                                            "code": "https://bluebutton.cms.gov/resources/variables/line_sbmtd_chrg_amt",
                                            "display": "Line Submitted Charge Amount"
                                        }
                                    ]
                                },
                                "amount": {
                                    "value": 140.52,
                                    "currency": "USD"
                                }
                            },
                            {
                                "category": {
                                    "coding": [
                                        {
                                            "system": "https://bluebutton.cms.gov/resources/codesystem/adjudication",
                                            "code": "https://bluebutton.cms.gov/resources/variables/line_alowd_chrg_amt",
                                            "display": "Line Allowed Charge Amount"
                                        }
                                    ]
                                },
                                "amount": {
                                    "value": 140.52,
                                    "currency": "USD"
                                }
                            },
                            {
                                "category": {
                                    "coding": [
                                        {
                                            "system": "https://bluebutton.cms.gov/resources/codesystem/adjudication",
                                            "code": "https://bluebutton.cms.gov/resources/variables/line_bene_ptb_ddctbl_amt",
                                            "display": "Line Beneficiary Part B Deductible Amount"
                                        }
                                    ]
                                },
                                "amount": {
                                    "value": 0,
                                    "currency": "USD"
                                }
                            },
                            {
                                "category": {
                                    "coding": [
                                        {
                                            "system": "https://bluebutton.cms.gov/resources/codesystem/adjudication",
                                            "code": "https://bluebutton.cms.gov/resources/variables/line_prcsg_ind_cd",
                                            "display": "Line Processing Indicator Code"
                                        }
                                    ]
                                }
                            }
                        ]
                    }
                ],
                "total": [
                    {
                        "category": {
                            "coding": [
                                {
                                    "system": "http://terminology.hl7.org/CodeSystem/adjudication",
                                    "code": "submitted",
                                    "display": "Submitted Amount"
                                }
                            ],
                            "text": "Submitted Amount"
                        },
                        "amount": {
                            "value": 129.16,
                            "currency": "USD"
                        }
                    }
                ],
                "payment": {
                    "amount": {
                        "value": 224.832,
                        "currency": "USD"
                    }
                }
            },
            "search": {
                "mode": "match"
            }
        },
        {
            "fullUrl": "https://hapi.fhir.org/baseR5/ExplanationOfBenefit/5076",
            "resource": {
                "resourceType": "ExplanationOfBenefit",
                "id": "5076",
                "meta": {
                    "versionId": "1",
                    "lastUpdated": "2022-05-25T09:07:00.745+00:00",
                    "source": "#JHoZ03e0jjyoOTGI"
                },
                "contained": [
                    {
                        "resourceType": "ServiceRequest",
                        "id": "referral",
                        "status": "completed",
                        "intent": "order",
                        "subject": {
                            "reference": "Patient/4965"
                        },
                        "requester": {
                            "reference": "Practitioner/4967"
                        },
                        "performer": [
                            {
                                "reference": "Practitioner/4967"
                            }
                        ]
                    },
                    {
                        "resourceType": "Coverage",
                        "id": "coverage",
                        "status": "active",
                        "type": {
                            "text": "Medicare"
                        },
                        "beneficiary": {
                            "reference": "Patient/4965"
                        }
                    }
                ],
                "identifier": [
                    {
                        "system": "https://bluebutton.cms.gov/resources/variables/clm_id",
                        "value": "5758ce6d-474f-4878-9752-309058ce8635"
                    },
                    {
                        "system": "https://bluebutton.cms.gov/resources/identifier/claim-group",
                        "value": "99999999999"
                    }
                ],
                "status": "active",
                "type": {
                    "coding": [
                        {
                            "system": "http://terminology.hl7.org/CodeSystem/claim-type",
                            "code": "institutional"
                        }
                    ]
                },
                "use": "claim",
                "patient": {
                    "reference": "Patient/4965"
                },
                "billablePeriod": {
                    "start": "2012-03-31T08:16:41-04:00",
                    "end": "2013-03-31T08:16:41-04:00"
                },
                "created": "2012-03-31T08:16:41-04:00",
                "insurer": {
                    "display": "Medicare"
                },
                "provider": {
                    "reference": "Practitioner/4967"
                },
                "referral": {
                    "reference": "#referral"
                },
                "claim": {
                    "reference": "Claim/5075"
                },
                "outcome": "complete",
                "careTeam": [
                    {
                        "sequence": 1,
                        "provider": {
                            "reference": "Practitioner/4967"
                        },
                        "role": {
                            "coding": [
                                {
                                    "system": "http://terminology.hl7.org/CodeSystem/claimcareteamrole",
                                    "code": "primary",
                                    "display": "Primary Care Practitioner"
                                }
                            ]
                        }
                    }
                ],
                "insurance": [
                    {
                        "focal": true,
                        "coverage": {
                            "reference": "#coverage",
                            "display": "Medicare"
                        }
                    }
                ],
                "item": [
                    {
                        "sequence": 1,
                        "category": {
                            "coding": [
                                {
                                    "system": "https://bluebutton.cms.gov/resources/variables/line_cms_type_srvc_cd",
                                    "code": "1",
                                    "display": "Medical care"
                                }
                            ]
                        },
                        "productOrService": {
                            "coding": [
                                {
                                    "system": "http://snomed.info/sct",
                                    "code": "185349003",
                                    "display": "Encounter for 'check-up'"
                                }
                            ],
                            "text": "Encounter for 'check-up'"
                        },
                        "servicedPeriod": {
                            "start": "2012-03-31T07:22:41-04:00",
                            "end": "2012-03-31T08:16:41-04:00"
                        },
                        "locationCodeableConcept": {
                            "coding": [
                                {
                                    "system": "http://terminology.hl7.org/CodeSystem/ex-serviceplace",
                                    "code": "21",
                                    "display": "Inpatient Hospital"
                                }
                            ]
                        },
                        "encounter": [
                            {
                                "reference": "Encounter/5073"
                            }
                        ]
                    },
                    {
                        "sequence": 2,
                        "category": {
                            "coding": [
                                {
                                    "system": "https://bluebutton.cms.gov/resources/variables/line_cms_type_srvc_cd",
                                    "code": "1",
                                    "display": "Medical care"
                                }
                            ]
                        },
                        "productOrService": {
                            "coding": [
                                {
                                    "system": "http://snomed.info/sct",
                                    "code": "73761001",
                                    "display": "Colonoscopy"
                                }
                            ],
                            "text": "Colonoscopy"
                        },
                        "servicedPeriod": {
                            "start": "2012-03-31T07:22:41-04:00",
                            "end": "2012-03-31T08:16:41-04:00"
                        },
                        "locationCodeableConcept": {
                            "coding": [
                                {
                                    "system": "http://terminology.hl7.org/CodeSystem/ex-serviceplace",
                                    "code": "21",
                                    "display": "Inpatient Hospital"
                                }
                            ]
                        },
                        "net": {
                            "value": 16338.86,
                            "currency": "USD"
                        },
                        "adjudication": [
                            {
                                "category": {
                                    "coding": [
                                        {
                                            "system": "https://bluebutton.cms.gov/resources/codesystem/adjudication",
                                            "code": "https://bluebutton.cms.gov/resources/variables/line_coinsrnc_amt",
                                            "display": "Line Beneficiary Coinsurance Amount"
                                        }
                                    ]
                                },
                                "amount": {
                                    "value": 3267.772,
                                    "currency": "USD"
                                }
                            },
                            {
                                "category": {
                                    "coding": [
                                        {
                                            "system": "https://bluebutton.cms.gov/resources/codesystem/adjudication",
                                            "code": "https://bluebutton.cms.gov/resources/variables/line_prvdr_pmt_amt",
                                            "display": "Line Provider Payment Amount"
                                        }
                                    ]
                                },
                                "amount": {
                                    "value": 13071.088,
                                    "currency": "USD"
                                }
                            },
                            {
                                "category": {
                                    "coding": [
                                        {
                                            "system": "https://bluebutton.cms.gov/resources/codesystem/adjudication",
                                            "code": "https://bluebutton.cms.gov/resources/variables/line_sbmtd_chrg_amt",
                                            "display": "Line Submitted Charge Amount"
                                        }
                                    ]
                                },
                                "amount": {
                                    "value": 16338.86,
                                    "currency": "USD"
                                }
                            },
                            {
                                "category": {
                                    "coding": [
                                        {
                                            "system": "https://bluebutton.cms.gov/resources/codesystem/adjudication",
                                            "code": "https://bluebutton.cms.gov/resources/variables/line_alowd_chrg_amt",
                                            "display": "Line Allowed Charge Amount"
                                        }
                                    ]
                                },
                                "amount": {
                                    "value": 16338.86,
                                    "currency": "USD"
                                }
                            },
                            {
                                "category": {
                                    "coding": [
                                        {
                                            "system": "https://bluebutton.cms.gov/resources/codesystem/adjudication",
                                            "code": "https://bluebutton.cms.gov/resources/variables/line_bene_ptb_ddctbl_amt",
                                            "display": "Line Beneficiary Part B Deductible Amount"
                                        }
                                    ]
                                },
                                "amount": {
                                    "value": 0,
                                    "currency": "USD"
                                }
                            },
                            {
                                "category": {
                                    "coding": [
                                        {
                                            "system": "https://bluebutton.cms.gov/resources/codesystem/adjudication",
                                            "code": "https://bluebutton.cms.gov/resources/variables/line_prcsg_ind_cd",
                                            "display": "Line Processing Indicator Code"
                                        }
                                    ]
                                }
                            }
                        ]
                    }
                ],
                "total": [
                    {
                        "category": {
                            "coding": [
                                {
                                    "system": "http://terminology.hl7.org/CodeSystem/adjudication",
                                    "code": "submitted",
                                    "display": "Submitted Amount"
                                }
                            ],
                            "text": "Submitted Amount"
                        },
                        "amount": {
                            "value": 129.16,
                            "currency": "USD"
                        }
                    }
                ],
                "payment": {
                    "amount": {
                        "value": 13071.088,
                        "currency": "USD"
                    }
                }
            },
            "search": {
                "mode": "match"
            }
        },
        {
            "fullUrl": "https://hapi.fhir.org/baseR5/ExplanationOfBenefit/5080",
            "resource": {
                "resourceType": "ExplanationOfBenefit",
                "id": "5080",
                "meta": {
                    "versionId": "1",
                    "lastUpdated": "2022-05-25T09:07:00.745+00:00",
                    "source": "#JHoZ03e0jjyoOTGI"
                },
                "contained": [
                    {
                        "resourceType": "ServiceRequest",
                        "id": "referral",
                        "status": "completed",
                        "intent": "order",
                        "subject": {
                            "reference": "Patient/4965"
                        },
                        "requester": {
                            "reference": "Practitioner/4967"
                        },
                        "performer": [
                            {
                                "reference": "Practitioner/4967"
                            }
                        ]
                    },
                    {
                        "resourceType": "Coverage",
                        "id": "coverage",
                        "status": "active",
                        "type": {
                            "text": "Medicare"
                        },
                        "beneficiary": {
                            "reference": "Patient/4965"
                        }
                    }
                ],
                "identifier": [
                    {
                        "system": "https://bluebutton.cms.gov/resources/variables/clm_id",
                        "value": "25d104d7-4cc4-4235-8d4d-376fec7d0a0d"
                    },
                    {
                        "system": "https://bluebutton.cms.gov/resources/identifier/claim-group",
                        "value": "99999999999"
                    }
                ],
                "status": "active",
                "type": {
                    "coding": [
                        {
                            "system": "http://terminology.hl7.org/CodeSystem/claim-type",
                            "code": "institutional"
                        }
                    ]
                },
                "use": "claim",
                "patient": {
                    "reference": "Patient/4965"
                },
                "billablePeriod": {
                    "start": "2013-01-18T06:37:41-05:00",
                    "end": "2014-01-18T06:37:41-05:00"
                },
                "created": "2013-01-18T06:37:41-05:00",
                "insurer": {
                    "display": "Medicare"
                },
                "provider": {
                    "reference": "Practitioner/4967"
                },
                "referral": {
                    "reference": "#referral"
                },
                "claim": {
                    "reference": "Claim/5079"
                },
                "outcome": "complete",
                "careTeam": [
                    {
                        "sequence": 1,
                        "provider": {
                            "reference": "Practitioner/4967"
                        },
                        "role": {
                            "coding": [
                                {
                                    "system": "http://terminology.hl7.org/CodeSystem/claimcareteamrole",
                                    "code": "primary",
                                    "display": "Primary Care Practitioner"
                                }
                            ]
                        }
                    }
                ],
                "diagnosis": [
                    {
                        "sequence": 1,
                        "diagnosisReference": {
                            "reference": "Condition/5078"
                        },
                        "type": [
                            {
                                "coding": [
                                    {
                                        "system": "http://terminology.hl7.org/CodeSystem/ex-diagnosistype",
                                        "code": "principal"
                                    }
                                ]
                            }
                        ]
                    }
                ],
                "insurance": [
                    {
                        "focal": true,
                        "coverage": {
                            "reference": "#coverage",
                            "display": "Medicare"
                        }
                    }
                ],
                "item": [
                    {
                        "sequence": 1,
                        "category": {
                            "coding": [
                                {
                                    "system": "https://bluebutton.cms.gov/resources/variables/line_cms_type_srvc_cd",
                                    "code": "1",
                                    "display": "Medical care"
                                }
                            ]
                        },
                        "productOrService": {
                            "coding": [
                                {
                                    "system": "http://snomed.info/sct",
                                    "code": "185345009",
                                    "display": "Encounter for symptom"
                                }
                            ],
                            "text": "Encounter for symptom"
                        },
                        "servicedPeriod": {
                            "start": "2013-01-18T06:22:41-05:00",
                            "end": "2013-01-18T06:37:41-05:00"
                        },
                        "locationCodeableConcept": {
                            "coding": [
                                {
                                    "system": "http://terminology.hl7.org/CodeSystem/ex-serviceplace",
                                    "code": "21",
                                    "display": "Inpatient Hospital"
                                }
                            ]
                        },
                        "encounter": [
                            {
                                "reference": "Encounter/5077"
                            }
                        ]
                    },
                    {
                        "sequence": 2,
                        "diagnosisSequence": [
                            1
                        ],
                        "category": {
                            "coding": [
                                {
                                    "system": "https://bluebutton.cms.gov/resources/variables/line_cms_type_srvc_cd",
                                    "code": "1",
                                    "display": "Medical care"
                                }
                            ]
                        },
                        "productOrService": {
                            "coding": [
                                {
                                    "system": "http://snomed.info/sct",
                                    "code": "444814009",
                                    "display": "Viral sinusitis (disorder)"
                                }
                            ],
                            "text": "Viral sinusitis (disorder)"
                        },
                        "servicedPeriod": {
                            "start": "2013-01-18T06:22:41-05:00",
                            "end": "2013-01-18T06:37:41-05:00"
                        },
                        "locationCodeableConcept": {
                            "coding": [
                                {
                                    "system": "http://terminology.hl7.org/CodeSystem/ex-serviceplace",
                                    "code": "21",
                                    "display": "Inpatient Hospital"
                                }
                            ]
                        }
                    }
                ],
                "total": [
                    {
                        "category": {
                            "coding": [
                                {
                                    "system": "http://terminology.hl7.org/CodeSystem/adjudication",
                                    "code": "submitted",
                                    "display": "Submitted Amount"
                                }
                            ],
                            "text": "Submitted Amount"
                        },
                        "amount": {
                            "value": 129.16,
                            "currency": "USD"
                        }
                    }
                ],
                "payment": {
                    "amount": {
                        "value": 0,
                        "currency": "USD"
                    }
                }
            },
            "search": {
                "mode": "match"
            }
        }
    ]
}