{
    "resourceType": "Bundle",
    "id": "72de289d-755d-4a8e-b247-ce250b260782",
    "meta": {
        "lastUpdated": "2025-08-20T11:55:55.786+00:00"
    },
    "type": "searchset",
    "link": [
        {
            "relation": "self",
            "url": "https://hapi.fhir.org/baseR5/ExplanationOfBenefit?_count=10&_format=json&patient=Patient%2F4965"
        },
        {
            "relation": "next",
            "url": "https://hapi.fhir.org/baseR5?_getpages=72de289d-755d-4a8e-b247-ce250b260782&_getpagesoffset=10&_count=10&_format=json&_pretty=true&_bundletype=searchset"
        }
    ],
    "entry": [
        {
            "fullUrl": "https://hapi.fhir.org/baseR5/ExplanationOfBenefit/4973",
            "resource": {
                "resourceType": "ExplanationOfBenefit",
                "id": "4973",
                "meta": {
                    "versionId": "1",
                    "lastUpdated": "2022-05-25T09:07:00.745+00:00",
                    "source": "#JHoZ03e0jjyoOTGI"
                },
                "contained": [
                    {
                        "resourceType": "ServiceRequest",
                        "id": "referral",
                        "status": "completed",
                        "intent": "order",
                        "subject": {
                            "reference": "Patient/4965"
                        },
                        "requester": {
                            "reference": "Practitioner/4967"
                        },
                        "performer": [
                            {
                                "reference": "Practitioner/4967"
                            }
                        ]
                    },
                    {
                        "resourceType": "Coverage",
                        "id": "coverage",
                        "status": "active",
                        "type": {
                            "text": "Humana"
                        },
                        "beneficiary": {
                            "reference": "Patient/4965"
                        }
                    }
                ],
                "identifier": [
                    {
                        "system": "https://bluebutton.cms.gov/resources/variables/clm_id",
                        "value": "55d10840-4850-43dd-bab2-334aec3e8839"
                    },
                    {
                        "system": "https://bluebutton.cms.gov/resources/identifier/claim-group",
                        "value": "99999999999"
                    }
                ],
                "status": "active",
                "type": {
                    "coding": [
                        {
                            "system": "http://terminology.hl7.org/CodeSystem/claim-type",
                            "code": "institutional"
                        }
                    ]
                },
                "use": "claim",
                "patient": {
                    "reference": "Patient/4965"
                },
                "billablePeriod": {
                    "start": "1965-11-15T08:07:41-05:00",
                    "end": "1966-11-15T08:07:41-05:00"
                },
                "created": "1965-11-15T08:07:41-05:00",
                "insurer": {
                    "display": "Humana"
                },
                "provider": {
                    "reference": "Practitioner/4967"
                },
                "referral": {
                    "reference": "#referral"
                },
                "claim": {
                    "reference": "Claim/4972"
                },
                "claimResponse": {
                    "fullUrl": "https://hapi.fhir.org/baseR5/ClaimResponse/786996",
                    "resource": {
                        "resourceType": "ClaimResponse",
                        "id": "786996",
                        "meta": {
                            "versionId": "2",
                            "lastUpdated": "1965-12-15T08:07:41-05:00",
                            "source": "#g7qCM860ERz9cKrA"
                        },
                        "status": "active",
                        "patient": {
                            "reference": "Patient/4965"
                        },
                        "created": "1965-12-15",
                        "insurer": {
                            "reference": "Organization/4966"
                        },
                        "request": {
                            "reference": "Claim/4972"
                        },
                        "outcome": "error",
                        "item": [
                            {
                                "itemSequence": 1,
                                "reviewOutcome": {
                                    "decision": {
                                        "coding": [
                                            {
                                                "system": "http://hl7.org/fhir/claim-decision",
                                                "code": "denied",
                                                "display": "Denied"
                                            }
                                        ]
                                    },
                                    "reason": [
                                        {
                                            "coding": [
                                                {
                                                    "system": "http://hl7.org/fhir/claim-decision-reason",
                                                    "code": "0001",
                                                    "display": "Not medically necessary"
                                                }
                                            ]
                                        }
                                    ]
                                },
                                "adjudication": [
                                    {
                                        "category": {
                                            "coding": [
                                                {
                                                    "system": "http://terminology.hl7.org/CodeSystem/adjudication",
                                                    "code": "eligible"
                                                }
                                            ]
                                        },
                                        "amount": {
                                            "value": 0,
                                            "currency": "USD"
                                        }
                                    }
                                ]
                            }
                        ],
                        "error": [
                            {
                                "itemSequence": 1,
                                "code": {
                                    "coding": [
                                        {
                                            "system": "http://terminology.hl7.org/CodeSystem/adjudication-error",
                                            "code": "a001",
                                            "display": "Invalid coding in diagnosis"
                                        }
                                    ]
                                }
                            },
                            {
                                "itemSequence": 1,
                                "code": {
                                    "coding": [
                                        {
                                            "system": "http://terminology.hl7.org/CodeSystem/adjudication-error",
                                            "code": "a002",
                                            "display": "Service not covered"
                                        }
                                    ]
                                }
                            }
                        ]
                    }
                },
                "outcome": "complete",
                "careTeam": [
                    {
                        "sequence": 1,
                        "provider": {
                            "reference": "Practitioner/4967"
                        },
                        "role": {
                            "coding": [
                                {
                                    "system": "http://terminology.hl7.org/CodeSystem/claimcareteamrole",
                                    "code": "primary",
                                    "display": "Primary Care Practitioner"
                                }
                            ]
                        }
                    }
                ],
                "diagnosis": [
                    {
                        "sequence": 1,
                        "diagnosisReference": {
                            "reference": "Condition/4969"
                        },
                        "type": [
                            {
                                "coding": [
                                    {
                                        "system": "http://terminology.hl7.org/CodeSystem/ex-diagnosistype",
                                        "code": "principal"
                                    }
                                ]
                            }
                        ]
                    },
                    {
                        "sequence": 2,
                        "diagnosisReference": {
                            "reference": "Condition/4970"
                        },
                        "type": [
                            {
                                "coding": [
                                    {
                                        "system": "http://terminology.hl7.org/CodeSystem/ex-diagnosistype",
                                        "code": "principal"
                                    }
                                ]
                            }
                        ]
                    }
                ],
                "insurance": [
                    {
                        "focal": true,
                        "coverage": {
                            "reference": "#coverage",
                            "display": "Humana"
                        }
                    }
                ],
                "item": [
                    {
                        "sequence": 1,
                        "category": {
                            "coding": [
                                {
                                    "system": "https://bluebutton.cms.gov/resources/variables/line_cms_type_srvc_cd",
                                    "code": "1",
                                    "display": "Medical care"
                                }
                            ]
                        },
                        "productOrService": {
                            "coding": [
                                {
                                    "system": "http://snomed.info/sct",
                                    "code": "410429000",
                                    "display": "Cardiac Arrest"
                                }
                            ],
                            "text": "Cardiac Arrest"
                        },
                        "servicedPeriod": {
                            "start": "1965-11-15T06:22:41-05:00",
                            "end": "1965-11-15T08:07:41-05:00"
                        },
                        "locationCodeableConcept": {
                            "coding": [
                                {
                                    "system": "http://terminology.hl7.org/CodeSystem/ex-serviceplace",
                                    "code": "20",
                                    "display": "Urgent Care Facility"
                                }
                            ]
                        },
                        "encounter": [
                            {
                                "reference": "Encounter/4968"
                            }
                        ]
                    },
                    {
                        "sequence": 2,
                        "diagnosisSequence": [
                            1
                        ],
                        "category": {
                            "coding": [
                                {
                                    "system": "https://bluebutton.cms.gov/resources/variables/line_cms_type_srvc_cd",
                                    "code": "1",
                                    "display": "Medical care"
                                }
                            ]
                        },
                        "productOrService": {
                            "coding": [
                                {
                                    "system": "http://snomed.info/sct",
                                    "code": "410429000",
                                    "display": "Cardiac Arrest"
                                }
                            ],
                            "text": "Cardiac Arrest"
                        },
                        "servicedPeriod": {
                            "start": "1965-11-15T06:22:41-05:00",
                            "end": "1965-11-15T08:07:41-05:00"
                        },
                        "locationCodeableConcept": {
                            "coding": [
                                {
                                    "system": "http://terminology.hl7.org/CodeSystem/ex-serviceplace",
                                    "code": "20",
                                    "display": "Urgent Care Facility"
                                }
                            ]
                        }
                    },
                    {
                        "sequence": 3,
                        "diagnosisSequence": [
                            2
                        ],
                        "category": {
                            "coding": [
                                {
                                    "system": "https://bluebutton.cms.gov/resources/variables/line_cms_type_srvc_cd",
                                    "code": "1",
                                    "display": "Medical care"
                                }
                            ]
                        },
                        "productOrService": {
                            "coding": [
                                {
                                    "system": "http://snomed.info/sct",
                                    "code": "429007001",
                                    "display": "History of cardiac arrest (situation)"
                                }
                            ],
                            "text": "History of cardiac arrest (situation)"
                        },
                        "servicedPeriod": {
                            "start": "1965-11-15T06:22:41-05:00",
                            "end": "1965-11-15T08:07:41-05:00"
                        },
                        "locationCodeableConcept": {
                            "coding": [
                                {
                                    "system": "http://terminology.hl7.org/CodeSystem/ex-serviceplace",
                                    "code": "20",
                                    "display": "Urgent Care Facility"
                                }
                            ]
                        }
                    }
                ],
                "total": [
                    {
                        "category": {
                            "coding": [
                                {
                                    "system": "http://terminology.hl7.org/CodeSystem/adjudication",
                                    "code": "submitted",
                                    "display": "Submitted Amount"
                                }
                            ],
                            "text": "Submitted Amount"
                        },
                        "amount": {
                            "value": 129.16,
                            "currency": "USD"
                        }
                    }
                ],
                "payment": {
                    "amount": {
                        "value": 0,
                        "currency": "USD"
                    }
                }
            },
            "search": {
                "mode": "match"
            }
        },
        {
            "fullUrl": "https://hapi.fhir.org/baseR5/ExplanationOfBenefit/4979",
            "resource": {
                "resourceType": "ExplanationOfBenefit",
                "id": "4979",
                "meta": {
                    "versionId": "1",
                    "lastUpdated": "2022-05-25T09:07:00.745+00:00",
                    "source": "#JHoZ03e0jjyoOTGI"
                },
                "contained": [
                    {
                        "resourceType": "ServiceRequest",
                        "id": "referral",
                        "status": "completed",
                        "intent": "order",
                        "subject": {
                            "reference": "Patient/4965"
                        },
                        "requester": {
                            "reference": "Practitioner/4975"
                        },
                        "performer": [
                            {
                                "reference": "Practitioner/4975"
                            }
                        ]
                    },
                    {
                        "resourceType": "Coverage",
                        "id": "coverage",
                        "status": "active",
                        "type": {
                            "text": "Humana"
                        },
                        "beneficiary": {
                            "reference": "Patient/4965"
                        }
                    }
                ],
                "identifier": [
                    {
                        "system": "https://bluebutton.cms.gov/resources/variables/clm_id",
                        "value": "80ea06f4-881b-4d74-a443-24dc4fd2aacf"
                    },
                    {
                        "system": "https://bluebutton.cms.gov/resources/identifier/claim-group",
                        "value": "99999999999"
                    }
                ],
                "status": "active",
                "type": {
                    "coding": [
                        {
                            "system": "http://terminology.hl7.org/CodeSystem/claim-type",
                            "code": "institutional"
                        }
                    ]
                },
                "use": "claim",
                "patient": {
                    "reference": "Patient/4965"
                },
                "billablePeriod": {
                    "start": "1977-02-21T06:52:41-05:00",
                    "end": "1978-02-21T06:52:41-05:00"
                },
                "created": "1977-02-21T06:52:41-05:00",
                "insurer": {
                    "display": "Humana"
                },
                "provider": {
                    "reference": "Practitioner/4975"
                },
                "referral": {
                    "reference": "#referral"
                },
                "claim": {
                    "reference": "Claim/4978"
                },
                "outcome": "complete",
                "careTeam": [
                    {
                        "sequence": 1,
                        "provider": {
                            "reference": "Practitioner/4975"
                        },
                        "role": {
                            "coding": [
                                {
                                    "system": "http://terminology.hl7.org/CodeSystem/claimcareteamrole",
                                    "code": "primary",
                                    "display": "Primary Care Practitioner"
                                }
                            ]
                        }
                    }
                ],
                "diagnosis": [
                    {
                        "sequence": 1,
                        "diagnosisReference": {
                            "reference": "Condition/4977"
                        },
                        "type": [
                            {
                                "coding": [
                                    {
                                        "system": "http://terminology.hl7.org/CodeSystem/ex-diagnosistype",
                                        "code": "principal"
                                    }
                                ]
                            }
                        ]
                    }
                ],
                "insurance": [
                    {
                        "focal": true,
                        "coverage": {
                            "reference": "#coverage",
                            "display": "Humana"
                        }
                    }
                ],
                "item": [
                    {
                        "sequence": 1,
                        "category": {
                            "coding": [
                                {
                                    "system": "https://bluebutton.cms.gov/resources/variables/line_cms_type_srvc_cd",
                                    "code": "1",
                                    "display": "Medical care"
                                }
                            ]
                        },
                        "productOrService": {
                            "coding": [
                                {
                                    "system": "http://snomed.info/sct",
                                    "code": "162673000",
                                    "display": "General examination of patient (procedure)"
                                }
                            ],
                            "text": "General examination of patient (procedure)"
                        },
                        "servicedPeriod": {
                            "start": "1977-02-21T06:22:41-05:00",
                            "end": "1977-02-21T06:52:41-05:00"
                        },
                        "locationCodeableConcept": {
                            "coding": [
                                {
                                    "system": "http://terminology.hl7.org/CodeSystem/ex-serviceplace",
                                    "code": "19",
                                    "display": "Off Campus-Outpatient Hospital"
                                }
                            ]
                        },
                        "encounter": [
                            {
                                "reference": "Encounter/4976"
                            }
                        ]
                    },
                    {
                        "sequence": 2,
                        "diagnosisSequence": [
                            1
                        ],
                        "category": {
                            "coding": [
                                {
                                    "system": "https://bluebutton.cms.gov/resources/variables/line_cms_type_srvc_cd",
                                    "code": "1",
                                    "display": "Medical care"
                                }
                            ]
                        },
                        "productOrService": {
                            "coding": [
                                {
                                    "system": "http://snomed.info/sct",
                                    "code": "162864005",
                                    "display": "Body mass index 30+ - obesity (finding)"
                                }
                            ],
                            "text": "Body mass index 30+ - obesity (finding)"
                        },
                        "servicedPeriod": {
                            "start": "1977-02-21T06:22:41-05:00",
                            "end": "1977-02-21T06:52:41-05:00"
                        },
                        "locationCodeableConcept": {
                            "coding": [
                                {
                                    "system": "http://terminology.hl7.org/CodeSystem/ex-serviceplace",
                                    "code": "19",
                                    "display": "Off Campus-Outpatient Hospital"
                                }
                            ]
                        }
                    }
                ],
                "total": [
                    {
                        "category": {
                            "coding": [
                                {
                                    "system": "http://terminology.hl7.org/CodeSystem/adjudication",
                                    "code": "submitted",
                                    "display": "Submitted Amount"
                                }
                            ],
                            "text": "Submitted Amount"
                        },
                        "amount": {
                            "value": 129.16,
                            "currency": "USD"
                        }
                    }
                ],
                "payment": {
                    "amount": {
                        "value": 0,
                        "currency": "USD"
                    }
                }
            },
            "search": {
                "mode": "match"
            }
        }
    ]
}